timestamp_us,raw_mag,filtered,ax,ay,az
11155408,0.909,0.282,0.183,0.468,0.758
11167770,0.841,0.412,0.192,0.419,0.703
11177456,0.773,0.494,0.25,0.333,0.652
11187436,0.762,0.545,0.288,0.292,0.642
11197436,0.795,0.583,0.35,0.221,0.679
11207436,0.889,0.622,0.363,0.235,0.776
11217579,0.953,0.665,0.348,0.271,0.845
11227535,1.033,0.709,0.327,0.375,0.905
11237690,1.075,0.752,0.327,0.423,0.933
11247432,1.079,0.784,0.32,0.414,0.944
11257436,1.042,0.799,0.359,0.373,0.904
11267428,0.978,0.792,0.405,0.322,0.829
11277436,0.949,0.771,0.419,0.284,0.803
11287539,0.887,0.738,0.412,0.251,0.744
11297464,0.862,0.697,0.409,0.232,0.723
11307436,0.856,0.656,0.403,0.223,0.722
11317436,0.87,0.62,0.393,0.23,0.742
11327809,0.91,0.593,0.373,0.227,0.798
11337616,0.918,0.573,0.355,0.242,0.811
11347451,0.919,0.554,0.336,0.233,0.823
11357436,1.233,0.57,0.98,0.264,0.699
11367436,1.127,0.601,0.814,0.288,0.723
11377932,0.946,0.589,-0.015,0.72,0.614
11387479,0.94,0.553,0.297,-0.064,0.889
11397444,0.975,0.525,0.357,0.058,0.906
11407436,0.893,0.493,0.288,0.118,0.837
11417703,0.987,0.466,0.245,-0.047,0.956
11427436,0.931,0.446,0.194,0.047,0.909
11437940,0.956,0.423,0.113,0.279,0.907
11447460,1.02,0.412,0.382,0.242,0.915
11457436,1.093,0.415,0.525,0.086,0.955
11467436,1.051,0.418,0.454,0.092,0.944
11477436,0.993,0.406,0.246,0.334,0.902
11488010,1.028,0.39,0.262,0.322,0.94
11497551,1.049,0.382,0.353,0.22,0.963
11507440,1.042,0.373,0.319,0.123,0.984
11517436,1.049,0.364,0.219,0.192,1.007
11527436,1.039,0.354,0.269,0.194,0.985
11539752,1.065,0.344,0.306,0.247,0.99
11547563,1.092,0.341,0.379,0.438,0.926
11557479,1.071,0.336,0.352,0.176,0.996
11567436,1.126,0.333,0.393,0.003,1.055
11577436,1.146,0.336,0.397,0.036,1.075
11588260,1.132,0.337,0.575,0.093,0.97
11597559,1.09,0.329,0.37,0.374,0.955
11607436,1.054,0.311,0.317,0.355,0.94
11617436,1.014,0.286,0.319,0.0,0.962
11627440,1.013,0.26,0.361,-0.038,0.946
11637476,1.036,0.241,0.387,0.139,0.951
11647670,1.076,0.23,0.395,0.294,0.957
11657475,1.09,0.227,0.409,0.255,0.978
11667607,1.127,0.228,0.378,0.176,1.047
11677436,1.103,0.228,0.359,0.105,1.038
11687436,1.092,0.223,0.328,0.103,1.037
11697436,1.043,0.21,0.277,0.167,0.992
11707436,0.963,0.184,0.235,0.145,0.922
11717436,0.98,0.156,0.278,0.16,0.926
11727436,0.99,0.135,0.341,0.153,0.917
11738322,1.018,0.122,0.478,0.291,0.85
11747714,1.038,0.117,0.411,0.173,0.938
11757496,1.006,0.111,0.344,0.079,0.942
11767436,1.074,0.109,0.344,0.04,1.017
11777436,1.098,0.117,0.371,0.053,1.033
11787436,1.124,0.128,0.394,0.034,1.052
11797586,1.086,0.134,0.391,0.027,1.013
11807475,1.038,0.128,0.414,0.103,0.946
11817440,0.966,0.109,0.251,0.306,0.882
11827436,0.961,0.085,0.294,0.259,0.878
11837436,0.974,0.066,0.362,0.177,0.887
11847812,1.025,0.058,0.408,0.171,0.925
11857483,1.007,0.055,0.349,0.112,0.938
11867436,1.041,0.054,0.352,0.061,0.978
11877436,1.076,0.061,0.376,0.017,1.008
11887436,1.075,0.069,0.389,0.036,1.001
11897825,1.063,0.074,0.363,0.036,0.999
11907577,1.044,0.074,0.372,0.036,0.975
11917687,1.038,0.07,0.383,0.04,0.964
11927436,1.021,0.064,0.353,0.026,0.958
11937436,0.994,0.054,0.31,0.005,0.944
11947647,1.297,0.076,-0.127,-0.5,1.19
11957892,1.093,0.104,0.488,-0.067,0.976
11967448,1.033,0.096,0.241,0.209,0.983
11977436,1.037,0.082,0.312,0.048,0.988
11987483,1.061,0.074,0.321,-0.026,1.011
11997436,1.093,0.073,0.352,-0.036,1.034
12007436,1.073,0.073,0.36,-0.026,1.011
12017436,1.037,0.067,0.367,0.017,0.97
12027436,1.061,0.06,0.351,0.011,1.001
12040912,1.078,0.058,0.359,-0.092,1.013
12049097,1.069,0.058,0.365,-0.096,1.0
12057492,1.058,0.055,0.361,0.009,0.995
12067436,1.056,0.05,0.352,0.03,0.995
12077436,1.056,0.046,0.341,-0.002,0.999
12087436,1.057,0.043,0.331,-0.031,1.004
12097554,1.035,0.038,0.295,0.03,0.991
12107515,1.045,0.032,0.302,0.025,1.0
12117440,1.063,0.03,0.334,-0.014,1.009
12127436,1.089,0.034,0.361,-0.094,1.023
12137436,1.101,0.04,0.391,-0.109,1.023
12147885,1.085,0.045,0.404,-0.032,1.006
12157706,1.059,0.043,0.359,-0.018,0.996
12167607,1.054,0.038,0.364,0.009,0.989
12177436,1.069,0.035,0.371,0.06,1.0
12187436,1.047,0.031,0.353,0.02,0.986
12197436,1.103,0.032,0.403,-0.024,1.027
12207545,1.099,0.039,0.323,-0.04,1.05
12217483,1.08,0.041,0.376,-0.041,1.012
12227436,1.11,0.043,0.424,-0.055,1.024
12237436,1.104,0.047,0.435,-0.06,1.013
12247436,1.062,0.045,0.404,-0.049,0.98
12257695,1.036,0.035,0.38,-0.027,0.963
12267468,0.99,0.019,0.364,0.049,0.919
12277436,0.998,0.002,0.372,0.081,0.923
12287436,1.041,-0.006,0.415,0.079,0.951
12297436,1.063,-0.004,0.462,0.042,0.957
12307563,1.062,-0.0,0.468,-0.007,0.954
12317464,1.084,0.005,0.497,-0.056,0.961
12327436,1.083,0.011,0.545,-0.05,0.935
12337436,1.052,0.013,0.528,-0.081,0.906
12348042,1.031,0.008,0.519,-0.09,0.886
12357659,0.995,-0.003,0.466,-0.015,0.878
12367444,0.957,-0.019,0.44,0.004,0.85
12377436,1.001,-0.031,0.468,0.037,0.884
12387436,1.015,-0.033,0.462,0.042,0.902
12397436,1.068,-0.027,0.527,0.016,0.929
12407595,1.082,-0.015,0.53,-0.014,0.944
12417698,1.099,-0.002,0.539,-0.07,0.955
12427436,1.082,0.008,0.543,-0.049,0.935
12437436,1.085,0.015,0.547,-0.05,0.936
12447436,1.099,0.021,0.54,-0.089,0.953
12460656,1.076,0.025,0.515,-0.031,0.944
12467598,1.053,0.023,0.517,-0.003,0.917
12477436,1.064,0.02,0.519,-0.007,0.928
12487436,1.064,0.018,0.534,-0.005,0.92
12497436,1.071,0.018,0.531,0.012,0.93
12507436,1.099,0.021,0.556,-0.014,0.948
12517539,1.105,0.027,0.559,-0.044,0.952
12527495,1.098,0.032,0.544,-0.026,0.954
12537436,1.088,0.033,0.529,0.002,0.951
12547436,1.096,0.034,0.512,-0.011,0.969
12557527,1.095,0.035,0.478,0.002,0.985
12567706,1.077,0.033,0.444,0.052,0.98
12577468,1.099,0.032,0.458,0.042,0.999
12587436,1.123,0.036,0.49,0.026,1.01
12597436,1.126,0.042,0.5,0.035,1.008
12607436,1.113,0.045,0.5,0.012,0.994
12617535,1.102,0.045,0.485,-0.003,0.99
12627440,1.083,0.04,0.5,0.002,0.96
12637436,1.073,0.034,0.498,0.014,0.951
12647436,1.076,0.027,0.482,0.028,0.961
12657692,1.067,0.021,0.478,0.062,0.952
12667825,1.057,0.015,0.461,0.046,0.95
12677444,1.047,0.007,0.462,0.012,0.939
12687436,1.019,-0.003,0.394,0.002,0.939
12697436,0.98,-0.019,0.344,0.046,0.917
12708569,0.967,-0.036,0.31,0.078,0.912
12717479,0.999,-0.048,0.403,0.064,0.912
12727440,1.007,-0.052,0.42,0.031,0.914
12737436,1.015,-0.053,0.443,0.008,0.914
12747436,1.031,-0.05,0.429,0.003,0.938
12757491,1.032,-0.046,0.437,0.034,0.935
12768352,1.015,-0.044,0.413,0.053,0.926
12777483,1.03,-0.042,0.38,0.016,0.958
12787436,0.993,-0.043,0.386,0.012,0.915
12797436,1.038,-0.043,0.366,0.001,0.972
12807436,1.001,-0.041,0.375,0.027,0.928
12817436,1.003,-0.043,0.355,0.031,0.938
12827567,0.987,-0.046,0.276,0.023,0.948
12837451,0.989,-0.05,0.353,0.023,0.923
12847436,1.06,-0.044,0.297,0.032,1.018
12857436,1.089,-0.028,0.269,0.037,1.055
12870639,1.101,-0.011,0.3,0.035,1.059
12877527,1.121,0.006,0.322,0.049,1.072
12887436,1.099,0.019,0.366,0.046,1.035
12897436,1.053,0.022,0.357,0.066,0.989
12907436,1.037,0.016,0.314,0.085,0.985
12917663,1.012,0.007,0.264,0.112,0.971
12927797,1.013,-0.002,0.26,0.105,0.974
12937495,1.034,-0.007,0.256,0.093,0.998
12947436,1.035,-0.008,0.195,0.38,0.942
12957436,1.069,-0.006,0.344,0.145,1.002
12967519,1.064,-0.0,0.355,0.065,1.0
12977726,1.011,-0.002,0.334,0.046,0.953
12987464,0.97,-0.014,0.355,0.108,0.896
12997436,0.979,-0.027,0.361,0.127,0.901
13007436,1.01,-0.033,0.353,0.144,0.936
13017436,1.056,-0.028,0.348,0.121,0.989
13027559,1.056,-0.019,0.336,0.129,0.993
13037839,1.085,-0.009,0.33,0.155,1.022
13047443,1.097,0.004,0.314,0.183,1.036
13057436,1.087,0.014,0.322,0.185,1.021
13068837,1.104,0.023,0.37,0.181,1.024
13077726,1.107,0.031,0.404,0.162,1.018
13087464,1.121,0.04,0.432,0.16,1.021
13097436,1.099,0.045,0.45,0.147,0.992
13107436,1.095,0.046,0.424,0.153,0.998
13117436,1.089,0.045,0.406,0.145,1.0
13128477,1.086,0.043,0.364,0.129,1.016
13137471,1.075,0.04,0.312,0.124,1.021
13147499,1.092,0.037,0.289,0.143,1.043
13157436,1.061,0.034,0.226,0.153,1.025
13167586,1.026,0.023,0.198,0.132,0.998
13178988,1.03,0.011,0.206,0.109,1.003
13187539,1.022,0.001,0.216,0.075,0.996
13197436,1.011,-0.008,0.244,0.059,0.979
13207436,1.03,-0.015,0.248,0.062,0.998
13217491,1.029,-0.018,0.264,0.089,0.99
13227436,1.033,-0.02,0.27,0.116,0.99
13237872,1.023,-0.021,0.277,0.097,0.98
13247467,1.006,-0.026,0.237,0.077,0.975
13257436,0.999,-0.032,0.197,0.065,0.977
13267436,0.999,-0.037,0.169,0.082,0.981
13280173,1.01,-0.039,0.151,0.105,0.993
13287499,1.014,-0.039,0.176,0.142,0.988
13297436,1.012,-0.038,0.161,0.146,0.988
13307436,1.048,-0.034,0.167,0.161,1.022
13317436,1.065,-0.024,0.115,0.169,1.045
13327436,1.069,-0.014,0.108,0.158,1.052
13337673,1.091,-0.003,0.052,0.17,1.076
13347463,1.094,0.008,0.012,0.157,1.083
13357436,1.099,0.018,0.011,0.157,1.087
13367436,1.069,0.023,0.028,0.171,1.055
13377520,1.058,0.021,0.048,0.177,1.042
13387706,1.058,0.019,0.048,0.175,1.042
13397464,1.101,0.022,0.075,0.171,1.085
13407436,1.176,0.037,0.032,0.219,1.155
13417670,1.206,0.06,0.012,0.255,1.178
13427436,1.27,0.088,-0.057,0.328,1.225
13437567,1.33,0.123,-0.116,0.419,1.257
13447463,1.32,0.155,-0.145,0.446,1.234
13457436,1.276,0.172,-0.046,0.497,1.175
13467436,1.233,0.175,0.021,0.514,1.12
13478578,1.154,0.162,0.111,0.481,1.043
13487631,1.061,0.131,0.153,0.438,0.954
13497440,1.011,0.09,0.174,0.401,0.912
13507440,0.94,0.044,0.147,0.364,0.854
13517436,0.858,-0.01,0.069,0.354,0.779
13527436,0.869,-0.059,0.035,0.382,0.779
13537593,0.854,-0.097,-0.051,0.391,0.758
13547440,0.819,-0.131,-0.119,0.378,0.716
13557436,0.82,-0.161,-0.121,0.372,0.721
13567440,0.768,-0.188,-0.121,0.353,0.671
13577436,0.765,-0.214,-0.099,0.363,0.667
13587933,0.753,-0.234,-0.107,0.394,0.633
13597464,0.758,-0.248,-0.094,0.399,0.638
13607436,0.791,-0.254,-0.118,0.426,0.655
13617436,0.808,-0.25,-0.125,0.43,0.672
13627436,0.875,-0.235,-0.19,0.475,0.71
13637436,0.907,-0.211,-0.193,0.494,0.736
13647567,0.915,-0.187,-0.168,0.5,0.748
13657440,0.897,-0.167,-0.123,0.511,0.727
13667573,0.952,-0.146,-0.127,0.539,0.774
13677436,0.991,-0.119,-0.141,0.554,0.81
13689618,1.103,-0.079,-0.214,0.593,0.905
13697590,1.16,-0.029,-0.258,0.595,0.961
13707440,1.184,0.019,-0.232,0.581,1.006
13717436,1.139,0.054,-0.166,0.518,1.001
13727436,1.067,0.068,-0.117,0.451,0.96
13737436,1.039,0.066,-0.09,0.421,0.945
13747523,0.939,0.051,-0.094,0.333,0.874
13757492,0.851,0.017,-0.104,0.242,0.81
13767436,0.825,-0.022,-0.139,0.2,0.788
13777436,0.802,-0.058,-0.216,0.158,0.756
13789675,0.855,-0.082,-0.375,0.097,0.762
13797616,0.893,-0.09,-0.478,0.071,0.751
13807440,0.947,-0.084,-0.633,0.012,0.704
13817436,1.043,-0.063,-0.773,-0.085,0.694
13827436,1.107,-0.028,-0.837,-0.126,0.713
13837436,1.217,0.019,-0.917,-0.191,0.777
13847535,1.047,0.049,-0.526,-0.185,0.886
13857491,1.371,0.088,-1.0,-0.06,0.937
13867440,1.814,0.205,-1.472,0.072,1.057
13877436,2.221,0.388,-1.754,0.337,1.32
13888774,2.633,0.62,-2.108,0.649,1.438
13897710,2.731,0.852,-2.184,0.787,1.439
13907464,2.892,1.054,-2.241,0.958,1.557
13917671,2.907,1.222,-2.245,1.027,1.536
13927436,2.973,1.352,-2.303,1.189,1.457
13937436,3.196,1.474,-2.466,1.447,1.428
13947762,3.228,1.586,-2.503,1.495,1.387
13957460,3.424,1.686,-2.648,1.606,1.46
13967436,3.464,1.776,-2.617,1.731,1.469
13977436,3.332,1.822,-2.486,1.744,1.371
13987436,2.8,1.769,-2.002,1.664,1.031
13997646,2.175,1.584,-1.412,1.438,0.818
14007627,1.89,1.325,-1.171,1.311,0.694
14017440,1.407,1.028,-0.845,1.008,0.5
14027436,1.052,0.696,-0.661,0.729,0.372
14037782,0.892,0.375,-0.56,0.621,0.311
14047440,0.659,0.078,-0.397,0.446,0.277
14057436,0.519,-0.194,-0.322,0.299,0.276
14067436,0.496,-0.422,-0.376,0.227,0.229
14077436,0.559,-0.591,-0.512,0.139,0.176
14087436,0.538,-0.712,-0.503,0.12,0.147
14099797,0.492,-0.809,-0.469,0.096,-0.113
14107523,0.321,-0.901,-0.296,0.094,-0.083
14117436,0.308,-0.986,-0.128,0.149,-0.237
14127436,0.365,-1.04,-0.019,0.18,-0.317
14137436,0.544,-1.047,0.134,0.243,-0.468
14147436,0.679,-1.008,0.204,0.229,-0.606
14157812,0.701,-0.953,0.232,0.209,-0.627
14167608,0.724,-0.898,0.207,0.146,-0.678
14177436,0.606,-0.858,0.248,0.156,-0.53
14187436,0.587,-0.836,0.211,0.194,-0.512
14197519,0.53,-0.821,0.178,0.221,-0.447
14207707,0.463,-0.816,0.185,0.214,-0.367
14217436,0.447,-0.816,0.195,0.216,-0.339
14227436,0.363,-0.82,0.246,0.141,-0.227
14237436,0.369,-0.826,0.285,0.132,-0.193
14247436,0.35,-0.825,0.287,0.117,-0.164
14257503,0.363,-0.818,0.315,0.131,-0.123
14267503,0.341,-0.808,0.296,0.161,-0.052
14277436,0.322,-0.798,0.261,0.187,-0.03
14287440,0.386,-0.779,0.241,0.295,0.064
14297467,0.557,-0.732,0.205,0.5,0.137
14307655,0.625,-0.662,-0.068,0.514,0.349
14317476,0.977,-0.556,-0.229,0.739,0.597
14327436,1.777,-0.34,-0.628,1.213,1.137
14337436,2.058,-0.049,-0.474,1.479,1.351
14348461,2.642,0.275,0.547,1.986,1.653
14357472,3.422,0.676,1.042,2.881,1.524
14367436,3.906,1.124,0.559,3.565,1.494
14377436,6.0,1.752,-1.535,5.492,1.866
14387436,7.17,2.591,-3.493,6.026,1.705
14397551,6.719,3.302,-3.843,5.289,1.549
14407670,5.024,3.587,-3.398,3.355,1.561
14417686,3.706,3.441,-2.564,2.115,1.639
14427436,3.424,3.122,-2.401,1.788,1.662
14437436,2.823,2.75,-2.035,1.37,1.397
14447436,2.487,2.335,-1.839,1.177,1.19
14457852,1.942,1.896,-1.526,0.887,0.809
14467471,1.556,1.435,-1.281,0.773,0.428
14477436,1.387,1.005,-1.206,0.643,0.24
14487440,1.417,0.647,-1.383,0.305,-0.044
14497436,1.494,0.377,-1.483,-0.104,-0.148
14507686,1.474,0.17,-1.443,-0.267,-0.136
14517476,1.421,0.001,-1.334,-0.478,-0.097
14527436,1.227,-0.159,-1.109,-0.523,-0.042
14537436,1.042,-0.324,-0.9,-0.525,-0.016
14547436,0.923,-0.483,-0.499,-0.777,0.0
14557559,0.855,-0.624,-0.195,-0.832,0.02
14567483,0.829,-0.739,-0.051,-0.827,0.014
14577436,0.755,-0.833,0.193,-0.73,0.012
14587436,0.699,-0.914,0.266,-0.641,-0.086
14597436,0.689,-0.977,0.26,-0.619,-0.156
14609164,0.732,-1.015,0.165,-0.644,-0.308
14617679,0.807,-1.023,0.007,-0.666,-0.456
14627436,0.848,-1.008,-0.013,-0.676,-0.512
14637436,0.845,-0.984,0.062,-0.668,-0.514
14647436,0.77,-0.966,0.293,-0.627,-0.337
14657437,0.773,-0.953,0.389,-0.614,-0.264
14667650,0.804,-0.931,0.515,-0.593,-0.174
14677531,0.74,-0.911,0.472,-0.57,-0.018
14687436,0.768,-0.892,0.505,-0.577,0.041
14697436,0.687,-0.876,0.381,-0.56,0.117
14707936,0.636,-0.871,0.109,-0.55,0.3
14717707,0.763,-0.853,-0.144,-0.458,0.593
14727464,1.518,-0.732,-0.884,-0.073,1.231
14737436,2.328,-0.458,-1.567,0.575,1.623
14747436,2.39,-0.143,-1.287,0.786,1.855
14757436,2.28,0.097,-0.471,0.713,2.113
14767555,2.31,0.273,-1.152,0.546,1.927
14777460,2.873,0.474,-2.013,0.8,1.887
14787436,5.106,0.939,-4.19,1.99,2.133
14797436,6.319,1.68,-5.172,2.959,2.103
14807436,5.98,2.339,-4.801,2.808,2.198
14817686,5.754,2.768,-4.302,3.24,2.027
14827475,4.213,2.881,-2.747,2.683,1.734
14837436,3.604,2.705,-2.325,2.218,1.631
14847436,2.767,2.384,-1.726,1.542,1.517
14857436,2.297,1.97,-1.327,1.393,1.254
14867436,2.113,1.56,-1.18,1.409,1.044
14877436,1.729,1.166,-0.899,1.345,0.609
14887436,1.235,0.752,-0.64,1.028,0.243
14897436,1.018,0.346,-0.562,0.839,0.125
14907483,0.633,-0.04,-0.402,0.488,0.041
14917993,0.373,-0.411,-0.268,0.258,0.031
14927592,0.276,-0.735,-0.193,0.184,0.073
14937464,0.194,-1.001,-0.051,0.116,0.147
14947436,0.232,-1.205,0.021,0.139,0.184
14957436,0.24,-1.348,0.055,0.191,0.134
14967436,0.374,-1.432,0.16,0.337,-0.019
14977559,0.626,-1.443,0.359,0.454,-0.24
14987471,0.74,-1.399,0.441,0.502,-0.316
14997436,0.881,-1.325,0.544,0.571,-0.394
15007436,0.888,-1.241,0.565,0.519,-0.448
15019883,0.846,-1.169,0.55,0.396,-0.507
15027601,0.743,-1.121,0.406,0.32,-0.533
15037761,0.941,-1.064,0.671,0.191,-0.631
15047440,0.923,-0.991,0.659,0.146,-0.63
15057436,0.939,-0.927,0.705,0.112,-0.61
15067436,0.832,-0.88,0.636,0.122,-0.522
15077539,0.762,-0.856,0.571,0.107,-0.493
15087480,0.603,-0.857,0.416,0.099,-0.425
15097436,0.459,-0.885,0.229,0.135,-0.374
15107436,0.417,-0.92,0.161,0.159,-0.351
15118187,0.326,-0.955,0.102,0.212,-0.225
15127631,0.32,-0.986,0.041,0.284,-0.143
15137441,0.319,-1.002,0.037,0.303,-0.095
15147436,0.374,-1.001,0.075,0.365,0.03
15157440,0.514,-0.971,0.112,0.469,0.178
15167702,0.695,-0.903,0.106,0.56,0.398
15177472,1.542,-0.728,-0.025,1.029,1.148
15187436,2.746,-0.357,0.058,1.884,1.997
15197436,3.395,0.142,-0.386,2.489,2.276
15207436,4.81,0.759,-2.397,3.613,2.083
15218188,7.706,1.715,-4.614,5.825,2.042
15227663,8.827,2.894,-4.957,7.001,2.083
15237444,6.838,3.688,-4.22,5.045,1.868
15247436,4.26,3.763,-2.926,2.428,1.921
15257436,3.617,3.429,-2.444,1.746,2.016
15267436,2.815,2.981,-1.926,0.952,1.818
15277436,2.252,2.457,-1.646,0.597,1.417
15287436,1.99,1.939,-1.523,0.44,1.202
15297436,1.503,1.437,-1.249,0.156,0.823
15307436,1.147,0.942,-0.991,-0.111,0.567
15317436,1.003,0.495,-0.867,-0.207,0.461
15327678,0.804,0.105,-0.611,-0.408,0.326
15337767,0.657,-0.236,-0.462,-0.378,0.274
15347460,0.829,-0.497,-0.392,-0.72,0.122
15357437,0.787,-0.68,-0.383,-0.658,0.2
15367440,0.751,-0.826,-0.388,-0.604,0.22
15377440,0.629,-0.95,-0.414,-0.448,0.153
15387817,0.525,-1.064,-0.392,-0.33,0.117
15397516,0.492,-1.16,-0.37,-0.302,0.115
15407495,0.463,-1.232,-0.317,-0.325,0.091
15417675,0.433,-1.284,-0.235,-0.364,0.007
15429774,0.409,-1.321,-0.147,-0.369,-0.097
15437594,0.413,-1.341,-0.093,-0.388,-0.104
15447460,0.44,-1.343,0.002,-0.399,-0.185
15457436,0.468,-1.327,0.034,-0.413,-0.217
15467436,0.558,-1.291,0.07,-0.486,-0.265
15477436,0.641,-1.234,0.099,-0.562,-0.291
15487836,0.696,-1.164,0.078,-0.628,-0.291
15497471,0.73,-1.091,0.062,-0.672,-0.278
15507436,0.76,-1.018,0.015,-0.729,-0.213
15517436,0.762,-0.95,-0.015,-0.741,-0.174
15527520,0.743,-0.892,-0.043,-0.739,-0.067
15537722,0.678,-0.849,-0.027,-0.677,0.002
15547456,0.651,-0.819,-0.016,-0.647,0.069
15557436,0.622,-0.796,-0.107,-0.549,0.272
15567436,0.568,-0.78,-0.285,-0.402,0.284
15577436,0.711,-0.753,-0.452,-0.376,0.4
15587554,1.341,-0.638,-1.055,-0.28,0.78
15597456,2.338,-0.362,-1.983,-0.108,1.235
15607436,2.839,0.023,-2.354,-0.013,1.587
15617436,3.737,0.478,-2.976,0.232,2.249
15627916,4.922,1.061,-4.041,0.632,2.737
15637998,5.44,1.696,-4.588,1.128,2.696
15647471,6.47,2.349,-5.709,2.193,2.111
15657436,6.834,2.993,-5.925,2.81,1.924
15667597,7.193,3.55,-6.374,2.706,1.947
15677436,4.259,3.665,-3.166,2.438,1.475
15687483,2.796,3.232,-1.977,1.533,1.249
15697436,2.353,2.657,-1.677,1.187,1.148
15707436,1.773,2.075,-1.298,0.833,0.874
15717436,1.452,1.506,-1.041,0.818,0.598
15727436,1.339,1.004,-0.926,0.842,0.476
15738653,1.049,0.562,-0.676,0.76,0.256
15747472,0.687,0.141,-0.423,0.541,0.033
15757436,0.574,-0.24,-0.354,0.449,0.054
15767436,0.36,-0.57,-0.217,0.286,-0.025
15777436,0.293,-0.853,-0.168,0.234,-0.05
15787547,0.281,-1.075,-0.155,0.226,-0.063
15797472,0.337,-1.234,-0.136,0.281,-0.126
15807436,0.481,-1.324,-0.063,0.338,-0.336
15817436,0.606,-1.354,0.05,0.404,-0.45
15827436,0.901,-1.319,0.235,0.593,-0.636
15839009,1.172,-1.218,0.387,0.775,-0.79
15847479,1.254,-1.091,0.477,0.821,-0.818
15857436,1.263,-0.973,0.527,0.795,-0.827
15867436,1.239,-0.876,0.691,0.623,-0.818
15877436,1.141,-0.807,0.661,0.5,-0.785
15887436,0.989,-0.775,0.636,0.316,-0.688
15897436,0.844,-0.778,0.554,0.249,-0.587
15907436,0.767,-0.798,0.5,0.235,-0.532
15917703,0.646,-0.83,0.42,0.25,-0.422
15927436,0.572,-0.871,0.378,0.257,-0.343
15937520,0.524,-0.908,0.362,0.248,-0.287
15947726,0.467,-0.942,0.322,0.244,-0.234
15957456,0.389,-0.976,0.274,0.218,-0.169
15967436,0.354,-1.008,0.26,0.195,-0.139
15977436,0.25,-1.04,0.185,0.154,-0.067
15987436,0.176,-1.076,0.13,0.111,-0.04
15997559,0.14,-1.108,0.112,0.083,-0.009
16007471,0.117,-1.131,0.044,0.093,0.055
16017436,0.859,-1.059,-0.344,0.362,0.699
16027436,1.668,-0.821,-0.658,0.772,1.325
16039204,3.373,-0.348,-1.603,1.979,2.211
16048413,3.767,0.258,-1.712,2.651,2.056
16057460,4.338,0.833,-2.726,2.597,2.154
16067436,6.072,1.532,-4.111,3.752,2.428
16077436,6.647,2.32,-4.09,4.785,2.135
16087436,6.107,2.918,-3.902,4.152,2.198
16097554,4.495,3.117,-3.15,2.213,2.321
16107460,3.789,2.986,-2.778,1.101,2.33
16117436,3.549,2.755,-2.68,0.848,2.166
16127436,2.965,2.462,-2.375,0.561,1.683
16137436,2.267,2.071,-1.904,0.253,1.204
16147686,1.943,1.636,-1.666,0.098,0.996
16157460,1.472,1.197,-1.282,-0.176,0.701
16167569,1.173,0.761,-0.953,-0.44,0.522
16177436,1.121,0.377,-0.87,-0.551,0.444
16188451,1.389,0.101,-0.729,-1.113,0.4
16197468,1.121,-0.114,-0.529,-0.929,0.336
16207436,1.055,-0.318,-0.432,-0.921,0.28
16217436,0.886,-0.5,-0.381,-0.758,0.253
16227436,0.647,-0.683,-0.375,-0.501,0.165
16237563,0.584,-0.853,-0.398,-0.406,0.133
16247674,0.533,-0.991,-0.439,-0.281,0.112
16257440,0.597,-1.088,-0.537,-0.229,0.128
16267436,0.585,-1.15,-0.521,-0.237,0.12
16277440,0.52,-1.197,-0.439,-0.257,0.104
16287577,0.437,-1.241,-0.306,-0.306,0.062
16297508,0.392,-1.279,-0.195,-0.339,0.013
16307436,0.413,-1.302,-0.062,-0.401,-0.077
16317468,0.438,-1.303,-0.01,-0.421,-0.122
16327440,0.54,-1.28,0.073,-0.515,-0.146
16337897,0.64,-1.229,0.06,-0.616,-0.164
16347540,0.673,-1.165,0.021,-0.652,-0.165
16357639,0.687,-1.101,-0.043,-0.682,-0.07
16367436,0.693,-1.041,-0.139,-0.677,-0.052
16377436,0.705,-0.983,-0.152,-0.687,-0.052
16387436,0.72,-0.928,-0.142,-0.706,0.009
16397436,0.71,-0.877,-0.23,-0.671,0.023
16407436,0.688,-0.834,-0.255,-0.639,0.018
16417707,0.64,-0.802,-0.288,-0.556,0.132
16427436,0.768,-0.762,-0.466,-0.478,0.38
16437436,0.971,-0.688,-0.657,-0.417,0.58
16448573,1.47,-0.546,-1.183,-0.269,0.831
16457718,2.228,-0.291,-1.96,-0.172,1.046
16467472,2.527,0.028,-2.261,-0.141,1.118
16477436,3.054,0.368,-2.827,-0.11,1.151
16487436,4.193,0.815,-3.904,0.316,1.497
16497436,4.669,1.337,-4.289,0.782,1.672
16507555,5.332,1.859,-4.783,1.604,1.726
16517471,5.718,2.367,-4.986,2.087,1.865
16527440,5.232,2.731,-4.24,2.458,1.831
16537436,4.556,2.861,-3.719,2.351,1.181
16547436,3.398,2.734,-2.731,1.786,0.947
16557931,2.896,2.427,-2.405,1.376,0.843
16567460,2.215,2.037,-1.932,0.874,0.641
16577436,1.775,1.593,-1.489,0.844,0.469
16587436,1.598,1.167,-1.28,0.875,0.386
16597436,1.268,0.77,-0.938,0.809,0.269
16607559,0.967,0.385,-0.701,0.638,0.192
16617456,0.835,0.035,-0.594,0.573,0.13
16627436,0.619,-0.276,-0.422,0.449,-0.064
16637436,0.555,-0.546,-0.363,0.357,-0.221
16647436,0.534,-0.761,-0.361,0.318,-0.231
16657690,0.587,-0.918,-0.388,0.351,-0.268
16667589,0.558,-1.03,-0.373,0.374,-0.182
16677440,0.536,-1.114,-0.338,0.388,-0.15
16687436,0.47,-1.18,-0.252,0.361,-0.163
16698900,0.426,-1.235,-0.133,0.344,-0.214
16707464,0.448,-1.27,-0.031,0.345,-0.284
16717440,0.576,-1.27,0.137,0.439,-0.346
16727436,0.798,-1.221,0.302,0.557,-0.485
16737436,0.917,-1.135,0.388,0.585,-0.59
16747569,0.972,-1.04,0.459,0.569,-0.641
16757507,0.988,-0.95,0.617,0.476,-0.608
16767618,0.929,-0.877,0.597,0.372,-0.606
16777436,0.747,-0.841,0.546,0.199,-0.469
16787929,0.559,-0.848,0.498,0.068,-0.246
16797581,0.48,-0.876,0.474,-0.002,-0.078
16807452,0.599,-0.887,0.513,-0.118,0.287
16817436,0.648,-0.869,0.492,-0.036,0.421
16827436,0.574,-0.851,0.402,0.09,0.399
16837750,0.512,-0.846,0.25,0.348,0.28
16847476,0.608,-0.832,0.185,0.567,0.118
16857483,0.648,-0.799,0.168,0.625,0.014
16867619,0.58,-0.77,0.201,0.533,-0.112
16877444,0.363,-0.773,-0.001,0.357,-0.063
16888237,0.454,-0.784,-0.151,0.427,0.039
16897590,0.971,-0.718,-0.5,0.781,0.287
16907440,1.539,-0.539,-0.883,1.056,0.688
16917703,1.823,-0.301,-0.91,1.253,0.961
16927436,2.585,0.004,-1.549,1.614,1.295
16937436,4.496,0.54,-3.595,2.152,1.629
16947436,5.642,1.294,-4.746,2.566,1.648
16957436,6.792,2.127,-5.553,3.521,1.702
16967752,6.801,2.886,-5.458,3.802,1.416
16977460,6.105,3.374,-4.97,3.297,1.305
16987436,4.11,3.425,-3.433,1.871,1.267
16997436,3.229,3.114,-2.832,0.872,1.283
17007436,2.925,2.716,-2.606,0.626,1.171
17018587,2.408,2.293,-2.191,0.379,0.924
17027472,1.956,1.839,-1.847,0.223,0.604
17037765,1.768,1.4,-1.702,0.158,0.452
17047436,1.346,0.98,-1.333,0.044,0.18
17057436,0.959,0.555,-0.958,-0.053,-0.002
17069307,0.805,0.161,-0.794,-0.116,-0.069
17077488,0.656,-0.18,-0.574,-0.285,-0.143
17087436,0.538,-0.473,-0.434,-0.27,-0.169
17097436,0.591,-0.704,-0.359,-0.428,-0.193
17107436,0.655,-0.864,-0.232,-0.599,-0.131
17117539,0.657,-0.974,-0.202,-0.624,-0.043
17127480,0.602,-1.058,-0.163,-0.579,0.01
17137436,0.564,-1.125,-0.178,-0.534,0.041
17147437,0.549,-1.174,-0.122,-0.52,0.128
17157436,0.577,-1.201,-0.076,-0.54,0.188
17169423,0.593,-1.208,-0.024,-0.573,0.151
17177527,0.663,-1.194,0.008,-0.663,0.023
17187436,0.751,-1.156,0.03,-0.749,-0.048
17197440,0.867,-1.094,0.068,-0.854,-0.139
17207436,0.9,-1.021,0.102,-0.881,-0.151
17217436,0.904,-0.952,0.162,-0.871,-0.182
17227436,0.812,-0.901,0.176,-0.765,-0.21
17237436,0.746,-0.872,0.154,-0.7,-0.209
17247436,0.681,-0.857,0.073,-0.636,-0.231
17257436,0.668,-0.847,0.028,-0.655,-0.128
17267904,0.665,-0.835,-0.048,-0.663,-0.025
17277714,0.662,-0.82,-0.123,-0.65,-0.026
17287460,0.646,-0.803,-0.186,-0.617,-0.035
17297436,0.62,-0.789,-0.205,-0.585,0.0
17307436,0.639,-0.773,-0.371,-0.512,0.098
17317436,0.808,-0.732,-0.651,-0.399,0.262
17327559,0.973,-0.658,-0.832,-0.389,0.322
17337479,1.422,-0.526,-1.271,-0.5,0.396
17347436,1.866,-0.32,-1.732,-0.539,0.438
17357479,2.32,-0.056,-2.196,-0.513,0.546
17367436,4.181,0.408,-4.101,-0.124,0.809
17377735,5.476,1.119,-5.293,0.834,1.125
17387468,6.092,1.876,-5.811,1.451,1.116
17397436,6.951,2.614,-6.358,2.568,1.14
17407436,5.492,3.098,-4.793,2.496,0.977
17417667,4.904,3.22,-4.103,2.537,0.883
17427574,3.183,3.029,-2.746,1.381,0.826
17437456,2.387,2.575,-2.206,0.617,0.671
17447436,2.145,2.087,-2.028,0.469,0.517
17457436,1.826,1.628,-1.733,0.478,0.319
17467436,1.564,1.194,-1.39,0.673,0.245
17477691,1.528,0.815,-1.295,0.772,0.244
17487460,1.414,0.497,-1.101,0.844,0.273
17497436,1.207,0.211,-0.898,0.763,0.259
17507436,1.088,-0.05,-0.812,0.684,0.237
17517472,0.874,-0.288,-0.673,0.52,0.202
17527590,0.805,-0.503,-0.671,0.422,0.137
17537483,0.767,-0.678,-0.637,0.416,0.092
17547436,0.723,-0.817,-0.557,0.461,-0.01
17557440,0.635,-0.933,-0.334,0.521,-0.141
17567436,0.61,-1.029,-0.208,0.549,-0.168
17579472,0.654,-1.092,-0.056,0.618,-0.207
17587590,0.863,-1.105,0.059,0.8,-0.318
17597460,0.959,-1.072,0.132,0.883,-0.349
17607436,1.113,-1.009,0.408,0.968,-0.368
17617436,1.078,-0.94,0.578,0.843,-0.344
17627436,1.162,-0.873,0.833,0.72,-0.374
17637559,0.985,-0.824,0.823,0.455,-0.294
17647475,0.805,-0.82,0.728,0.28,-0.2
17657436,0.708,-0.841,0.651,0.223,-0.167
17667573,0.435,-0.893,0.376,0.187,-0.116
17677534,0.313,-0.97,0.2,0.235,-0.053
17687881,0.308,-1.036,0.183,0.245,-0.034
17697460,0.293,-1.082,0.221,0.19,-0.034
17707436,0.318,-1.107,0.295,0.099,-0.063
17717436,0.342,-1.113,0.319,0.07,-0.099
17727436,0.334,-1.107,0.305,0.051,-0.126
17737874,0.297,-1.098,0.272,0.051,-0.109
17747456,0.244,-1.093,0.227,0.04,-0.08
17757436,0.24,-1.087,-0.048,0.125,0.2
17767436,1.015,-0.987,-0.483,0.392,0.802
17777436,1.293,-0.783,-0.578,0.577,1.002
17787698,2.018,-0.507,-1.4,0.671,1.289
17797460,2.528,-0.15,-1.686,0.92,1.645
17807436,2.833,0.22,-1.887,1.114,1.795
17817436,3.985,0.668,-2.756,1.746,2.288
17827436,5.125,1.268,-3.573,2.649,2.545
17837563,5.459,1.888,-3.782,2.974,2.579
17847471,5.143,2.356,-3.561,2.65,2.598
17857436,3.781,2.513,-2.537,1.506,2.365
17867436,3.225,2.399,-2.123,1.075,2.177
17877436,2.699,2.17,-1.818,0.662,1.882
17888460,2.403,1.884,-1.709,0.536,1.603
17897476,2.262,1.597,-1.606,0.503,1.512
17907436,1.925,1.309,-1.354,0.436,1.297
17917667,1.669,1.008,-1.159,0.405,1.13
17927437,1.604,0.731,-1.131,0.422,1.056
17938254,1.398,0.48,-1.055,0.416,0.819
17947536,1.133,0.229,-0.926,0.322,0.567
17957436,0.99,-0.014,-0.83,0.229,0.489
17967436,0.689,-0.252,-0.596,0.051,0.342
17977436,0.501,-0.489,-0.413,-0.13,0.253
17988559,0.466,-0.695,-0.306,-0.228,0.267
17997468,0.472,-0.852,-0.181,-0.344,0.268
18007436,0.533,-0.959,-0.146,-0.408,0.31
18017436,0.645,-1.016,-0.085,-0.59,0.244
18027436,0.74,-1.028,-0.146,-0.686,0.239
18038257,0.798,-1.012,-0.084,-0.747,0.27
18047479,0.786,-0.987,-0.033,-0.739,0.264
18057436,0.684,-0.972,-0.023,-0.678,0.087
18067436,0.72,-0.961,-0.036,-0.718,-0.043
18077436,0.772,-0.934,-0.014,-0.763,-0.116
18087516,0.916,-0.884,0.005,-0.905,-0.138
18097714,0.958,-0.818,0.073,-0.944,-0.146
18107460,0.927,-0.758,0.08,-0.914,-0.136
18117436,0.774,-0.727,0.06,-0.759,-0.139
18127436,0.703,-0.722,0.03,-0.686,-0.149
18137436,0.594,-0.732,-0.059,-0.562,-0.183
18147559,0.586,-0.748,-0.17,-0.516,-0.219
18157475,0.587,-0.755,-0.194,-0.498,-0.242
18167589,0.534,-0.76,-0.22,-0.438,-0.209
18177436,0.501,-0.768,-0.285,-0.377,-0.167
18188865,0.533,-0.768,-0.375,-0.349,-0.151
18197726,0.659,-0.744,-0.566,-0.328,-0.077
18207460,0.935,-0.674,-0.87,-0.34,0.035
18217436,1.11,-0.565,-1.056,-0.327,0.097
18227436,1.423,-0.42,-1.368,-0.275,0.276
18237436,2.412,-0.159,-2.226,-0.001,0.931
18247680,3.086,0.232,-2.745,0.491,1.323
18257479,4.136,0.726,-3.79,1.392,0.899
18267436,4.121,1.22,-3.621,1.946,0.29
18277436,4.44,1.628,-3.965,1.949,0.438
18287436,4.496,1.973,-3.8,2.362,0.444
18298891,3.595,2.13,-2.805,2.145,0.671
18307484,3.173,2.087,-2.476,1.801,0.834
18317437,2.688,1.935,-2.179,1.064,1.16
18327436,2.68,1.747,-2.285,0.627,1.253
18337436,2.954,1.617,-2.593,0.564,1.298
18347436,3.558,1.602,-3.283,0.662,1.203
18357563,3.782,1.67,-3.575,0.875,0.869
18367452,3.659,1.721,-3.457,0.984,0.683
18377436,3.108,1.672,-2.871,1.111,0.432
18387436,2.506,1.491,-2.202,1.15,0.336
18399792,2.086,1.224,-1.754,1.045,0.43
18407585,1.977,0.948,-1.628,0.981,0.544
18417683,1.997,0.716,-1.613,0.863,0.8
18427437,2.069,0.541,-1.653,0.856,0.902
18437437,2.034,0.405,-1.572,0.922,0.903
18447436,1.775,0.264,-1.295,0.885,0.832
18457592,1.621,0.105,-1.161,0.825,0.774
18467456,1.316,-0.07,-0.879,0.74,0.642
18477436,1.161,-0.256,-0.809,0.643,0.528
18487436,1.085,-0.425,-0.774,0.598,0.471
18497484,0.96,-0.575,-0.685,0.565,0.366
18507678,0.803,-0.719,-0.504,0.57,0.257
18517471,0.7,-0.854,-0.376,0.546,0.224
18527436,0.577,-0.977,-0.144,0.54,0.146
18537436,0.535,-1.083,0.023,0.508,0.166
18547436,0.494,-1.166,0.111,0.457,0.151
18557436,0.446,-1.232,0.189,0.384,0.123
18567436,0.401,-1.283,0.244,0.313,0.053
18577436,0.369,-1.321,0.213,0.301,0.01
18587436,0.385,-1.342,0.176,0.314,-0.137
18598845,0.497,-1.334,0.286,0.343,-0.218
18607675,0.59,-1.293,0.394,0.339,-0.28
18617594,0.762,-1.222,0.601,0.298,-0.361
18627460,0.837,-1.129,0.686,0.248,-0.411
18637436,0.884,-1.035,0.732,0.248,-0.428
18647436,0.844,-0.953,0.693,0.238,-0.419
18657436,0.747,-0.897,0.613,0.241,-0.352
18667956,0.711,-0.861,0.589,0.235,-0.321
18677463,0.503,-0.854,0.382,0.188,-0.268
18687499,0.308,-0.887,0.201,0.137,-0.189
18697436,0.237,-0.935,0.173,0.107,-0.122
18707958,0.215,-0.976,0.189,0.035,-0.095
18717464,0.237,-0.999,0.229,0.005,-0.064
18727436,0.239,-1.007,0.222,0.014,-0.086
18737436,0.188,-1.011,0.181,0.042,-0.034
18747436,0.187,-1.011,0.067,0.174,0.005
18757436,0.292,-0.992,0.022,0.291,0.003
18767577,0.472,-0.937,-0.018,0.471,0.02
18777440,0.543,-0.859,0.017,0.542,-0.0
18787440,0.558,-0.782,0.035,0.557,0.011
18797436,0.643,-0.705,0.072,0.639,0.008
18809709,0.881,-0.604,0.039,0.877,0.068
18817500,1.081,-0.471,0.011,1.077,0.093
18827436,1.734,-0.268,-0.311,1.685,0.27
18837436,3.371,0.148,-1.657,2.737,1.061
18847436,3.665,0.686,-1.607,3.176,0.871
18857436,3.89,1.156,-1.191,3.685,0.376
18867547,3.793,1.526,-0.501,3.759,-0.026
18877464,3.63,1.771,-0.392,3.608,-0.001
18887436,3.343,1.897,-0.271,3.329,0.128
18897436,3.435,1.958,-0.072,3.43,0.168
18907512,3.619,2.021,-0.025,3.616,0.157
18917957,4.06,2.123,-0.254,4.039,0.325
18927456,4.592,2.295,-1.063,4.398,0.786
18937436,4.693,2.482,-1.372,4.417,0.799
18947436,4.173,2.56,-1.479,3.866,0.525
18957436,3.34,2.448,-1.254,3.076,0.356
18967554,3.037,2.214,-1.125,2.801,0.333
18977464,2.726,1.947,-0.991,2.514,0.359
18987436,2.599,1.675,-1.018,2.346,0.466
18997436,2.585,1.435,-1.103,2.257,0.607
19008229,2.645,1.242,-1.411,2.052,0.891
19017622,2.842,1.112,-1.825,1.864,1.126
19027448,2.905,1.031,-1.967,1.794,1.163
19037792,2.713,0.946,-1.917,1.623,1.026
19047436,2.51,0.828,-1.795,1.48,0.939
19057586,2.12,0.663,-1.582,1.183,0.769
19067456,1.821,0.453,-1.389,0.871,0.793
19077436,1.653,0.234,-1.239,0.74,0.805
19087436,1.392,0.014,-1.092,0.409,0.761
19097436,1.298,-0.196,-1.133,0.17,0.609
19107563,1.405,-0.356,-1.312,0.064,0.498
19117670,1.763,-0.426,-1.699,-0.254,0.396
19127448,1.978,-0.412,-1.808,-0.601,0.533
19137436,2.024,-0.368,-1.814,-0.728,0.524
19147727,1.77,-0.355,-1.532,-0.69,0.557
19157460,1.605,-0.389,-1.12,-0.986,0.592
19167581,1.434,-0.45,-0.942,-0.97,0.477
19177436,1.093,-0.551,-0.573,-0.832,0.417
19187436,0.861,-0.69,-0.33,-0.721,0.336
19197567,0.748,-0.83,-0.239,-0.659,0.262
19207456,0.632,-0.958,-0.202,-0.584,0.132
19217635,0.613,-1.065,-0.234,-0.539,0.175
19227448,0.653,-1.137,-0.326,-0.528,0.205
19237436,0.815,-1.162,-0.564,-0.477,0.344
19247577,0.954,-1.137,-0.716,-0.328,0.538
19257456,1.008,-1.088,-0.74,-0.204,0.653
19267436,1.09,-1.026,-0.659,0.102,0.862
19277436,1.19,-0.949,-0.558,0.365,0.986
19287563,1.41,-0.846,-0.621,0.505,1.161
19297456,1.809,-0.69,-0.834,0.772,1.407
19307436,1.807,-0.519,-0.942,0.975,1.195
19317487,1.757,-0.388,-0.771,1.157,1.074
19327627,3.258,-0.121,-2.081,1.8,1.744
19337531,4.26,0.368,-2.253,2.848,2.226
19347480,4.751,0.912,-2.603,3.26,2.273
19357444,5.384,1.453,-2.799,3.89,2.452
19367436,6.29,2.033,-2.824,5.023,2.52
19377436,6.272,2.567,-2.417,5.364,2.172
19387516,5.356,2.856,-1.724,4.853,1.471
19397515,3.861,2.787,-1.113,3.569,0.963
19407440,3.221,2.472,-0.84,3.029,0.702
19418546,2.339,2.038,-0.371,2.3,0.207
19427711,1.76,1.52,-0.043,1.757,-0.082
19437464,1.541,1.018,0.095,1.528,-0.179
19447436,1.095,0.545,0.083,1.086,-0.113
19457436,0.812,0.093,-0.144,0.796,0.07
19467436,0.791,-0.293,-0.292,0.712,0.181
19477555,0.758,-0.596,-0.449,0.556,0.253
19487460,0.581,-0.85,-0.362,0.374,0.258
19497436,0.435,-1.077,-0.253,0.301,0.186
19507437,0.247,-1.281,-0.014,0.246,0.027
19517436,0.314,-1.443,0.132,0.267,-0.098
19527691,0.391,-1.542,0.182,0.289,-0.19
19537471,0.558,-1.578,0.346,0.335,-0.281
19547436,0.717,-1.557,0.517,0.347,-0.357
19557436,0.738,-1.509,0.489,0.369,-0.412
19567436,0.959,-1.432,0.599,0.405,-0.629
19577436,0.958,-1.337,0.487,0.411,-0.716
19587436,0.983,-1.249,0.495,0.365,-0.767
19597436,1.051,-1.161,0.625,0.214,-0.818
19607436,1.182,-1.061,0.794,0.168,-0.859
19617436,1.227,-0.955,0.884,0.272,-0.807
19628027,1.45,-0.836,1.048,0.776,-0.634
19637555,1.636,-0.691,0.737,1.211,-0.816
19647480,1.574,-0.559,0.391,1.19,-0.953
19657436,1.277,-0.492,-0.199,0.819,-0.959
19667578,0.865,-0.516,-0.603,0.27,-0.559
19677436,0.745,-0.59,-0.68,0.102,-0.286
19687436,0.524,-0.681,-0.449,0.24,0.124
19698000,1.008,-0.717,-0.304,0.836,0.473
19707448,1.784,-0.598,-0.395,1.344,1.105
19717436,3.356,-0.237,-1.166,2.604,1.768
19729224,4.102,0.304,-2.273,3.358,0.616
19737651,4.5,0.85,-2.2,3.925,0.061
19747503,5.479,1.421,-1.827,5.139,0.517
19757512,5.686,1.986,-2.657,4.734,1.69
19767444,5.414,2.401,-2.854,4.167,1.949
19777436,4.649,2.588,-2.752,3.095,2.112
19787436,3.965,2.55,-2.522,2.049,2.273
19797503,3.63,2.386,-2.392,1.642,2.181
19807531,3.372,2.173,-2.402,1.171,2.057
19817436,3.108,1.932,-2.243,0.936,1.937
19827923,2.917,1.679,-2.111,0.814,1.84
19837718,2.607,1.413,-1.91,0.591,1.673
19847456,2.213,1.117,-1.649,0.31,1.442
19857436,1.993,0.809,-1.534,0.152,1.263
19867436,1.595,0.495,-1.271,-0.137,0.954
19877436,1.268,0.166,-1.044,-0.412,0.59
19887559,1.247,-0.13,-1.013,-0.521,0.505
19897475,1.185,-0.367,-0.858,-0.735,0.356
19907436,1.06,-0.57,-0.558,-0.899,0.071
19917679,1.147,-0.726,-0.512,-0.998,0.241
19927436,1.301,-0.815,-0.5,-1.183,0.207
19937739,1.408,-0.848,-0.424,-1.321,0.243
19947456,1.446,-0.851,-0.357,-1.347,0.385
19957436,1.44,-0.843,-0.442,-1.291,0.46
19967436,1.403,-0.834,-0.487,-1.266,0.359
19977436,1.37,-0.829,-0.422,-1.269,0.3
19987559,1.233,-0.838,-0.209,-1.205,0.158
19997456,1.19,-0.858,-0.117,-1.182,0.077
20007436,1.101,-0.882,0.033,-1.1,0.006
20017436,1.024,-0.912,0.053,-1.019,-0.093
20027436,0.975,-0.942,0.003,-0.967,-0.12
20038090,0.869,-0.975,-0.076,-0.863,-0.061
20047436,0.731,-1.021,-0.149,-0.708,0.105
20057436,0.664,-1.071,-0.312,-0.576,0.112
20067436,0.783,-1.095,-0.585,-0.436,0.283
20077436,1.089,-1.058,-0.782,-0.295,0.698
20087436,1.353,-0.957,-0.913,-0.165,0.985
20097436,2.5,-0.712,-1.905,0.204,1.606
20107436,3.351,-0.293,-2.445,1.073,2.025
20117436,3.499,0.146,-2.622,1.205,1.979
20127436,5.203,0.694,-4.248,1.586,2.552
20139827,6.496,1.449,-5.416,2.458,2.614
20147590,7.6,2.293,-6.241,3.579,2.449
20157464,7.005,2.986,-4.482,5.202,1.382
20167589,5.896,3.308,-3.212,4.574,1.878
20177437,5.088,3.318,-3.014,3.489,2.152
20187436,4.081,3.095,-2.714,2.268,2.035
20197568,3.492,2.719,-2.412,2.116,1.378
20207491,3.239,2.311,-2.135,2.21,1.022
20217436,2.769,1.895,-1.448,2.332,0.364
20227436,2.162,1.437,-0.736,2.029,-0.13
20237528,1.822,0.964,-0.429,1.76,-0.198
20247690,1.192,0.48,0.007,1.179,-0.174
20258311,0.828,-0.01,0.169,0.803,-0.105
20267554,0.735,-0.442,0.163,0.711,-0.087
20277436,0.672,-0.79,0.004,0.663,-0.109
20287436,0.703,-1.058,-0.008,0.605,-0.357
20297436,0.766,-1.247,0.087,0.567,-0.508
20307436,1.065,-1.343,0.395,0.433,-0.889
20317555,2.019,-1.266,1.496,0.332,-1.314
20327471,1.604,-1.136,1.028,0.271,-1.201
20337436,1.67,-1.065,1.169,0.117,-1.187
20347904,1.471,-1.017,0.99,-0.093,-1.084
20357456,1.401,-1.002,0.861,-0.167,-1.092
20367436,1.301,-1.001,0.718,-0.163,-1.072
20377436,1.114,-1.024,0.569,0.058,-0.956
20387436,1.036,-1.064,0.483,0.199,-0.895
20397436,0.901,-1.111,0.296,0.404,-0.749
20407624,0.805,-1.164,0.163,0.469,-0.633
20417679,0.736,-1.214,0.137,0.452,-0.564
20427436,0.648,-1.262,0.105,0.436,-0.469
20437436,0.575,-1.306,0.125,0.437,-0.353
20448460,0.602,-1.336,0.122,0.506,-0.303
20457512,0.695,-1.334,0.162,0.644,-0.205
20467436,0.895,-1.29,0.271,0.849,-0.086
20477436,0.998,-1.211,0.302,0.952,-0.011
20487436,1.167,-1.11,0.312,1.124,0.039
20497527,1.305,-0.989,0.146,1.294,0.087
20507496,1.502,-0.849,-0.201,1.47,0.234
20517436,2.754,-0.571,-0.853,2.308,1.238
20527436,4.341,-0.033,-1.642,3.5,1.975
20538530,4.946,0.631,-1.632,4.077,2.276
20548520,6.037,1.331,-1.628,5.147,2.702
20557436,6.571,2.046,-1.882,5.936,2.099
20567436,6.372,2.622,-2.066,5.762,1.771
20577436,5.193,2.893,-2.79,4.059,1.648
20587577,4.34,2.852,-2.85,2.736,1.797
20597460,4.009,2.666,-2.75,2.286,1.811
20607436,3.371,2.391,-2.522,1.427,1.722
20617436,2.734,2.016,-2.251,0.679,1.394
20627436,2.436,1.604,-2.087,0.448,1.173
20637559,1.9,1.178,-1.726,0.169,0.776
20647515,1.469,0.73,-1.34,-0.085,0.596
20657627,1.307,0.311,-1.178,-0.186,0.534
20667608,1.073,-0.062,-0.912,-0.302,0.478
20677436,0.96,-0.389,-0.864,-0.287,0.307
20687646,0.992,-0.649,-0.931,-0.281,0.2
20697503,1.088,-0.831,-1.048,-0.286,0.046
20707436,0.967,-0.969,-0.931,-0.261,0.025
20717436,0.898,-1.089,-0.863,-0.25,-0.005
20727436,0.78,-1.194,-0.712,-0.299,-0.111
20737436,0.673,-1.292,-0.591,-0.28,-0.157
20748803,1.037,-1.329,-0.532,-0.785,-0.42
20757744,0.974,-1.313,-0.384,-0.846,-0.293
20767456,1.05,-1.289,-0.317,-0.964,-0.267
20777436,1.013,-1.256,-0.264,-0.944,-0.254
20787436,0.948,-1.231,-0.259,-0.87,-0.273
20797436,0.956,-1.209,-0.335,-0.861,-0.247
20808167,0.975,-1.179,-0.374,-0.871,-0.231
20817559,1.051,-1.136,-0.519,-0.895,-0.183
20827436,1.087,-1.081,-0.542,-0.928,-0.166
20837436,1.101,-1.024,-0.506,-0.965,-0.16
20847436,1.16,-0.964,-0.319,-1.115,-0.041
20857703,1.275,-0.89,-0.136,-1.267,0.048
20867595,1.347,-0.804,-0.07,-1.337,0.147
20877460,1.371,-0.721,-0.07,-1.357,0.176
20887436,1.215,-0.665,-0.356,-1.146,0.192
20897436,1.155,-0.641,-0.566,-0.991,0.178
20907436,1.463,-0.59,-1.166,-0.739,0.484
20917824,2.629,-0.379,-1.927,-0.37,1.75
20927475,3.429,0.007,-2.338,0.0,2.508
20937440,3.623,0.418,-2.665,0.72,2.347
20947436,4.495,0.853,-3.955,0.76,1.995
20960172,9.144,1.803,-8.013,3.869,2.106
20967488,10.109,3.156,-8.549,5.182,1.499
20977436,9.579,4.228,-7.481,5.817,1.396
20987436,6.202,4.589,-3.971,4.653,1.022
20997436,3.59,4.16,-2.272,2.552,1.102
21007436,3.193,3.457,-1.923,2.271,1.157
21017634,2.952,2.813,-1.545,2.364,0.859
21027460,2.668,2.233,-1.143,2.385,0.346
21037764,2.093,1.668,-0.607,2.0,-0.091
21047436,1.785,1.118,-0.42,1.726,-0.176
21057520,1.293,0.592,-0.167,1.215,-0.409
21067440,1.038,0.096,-0.104,0.954,-0.396
21077436,0.63,-0.364,0.045,0.557,-0.292
21087436,0.399,-0.789,0.18,0.256,-0.249
21097436,0.369,-1.142,0.223,0.148,-0.253
21107436,0.395,-1.407,0.196,0.083,-0.333
21117436,0.616,-1.574,0.406,0.185,-0.425
21127436,0.75,-1.651,0.492,0.263,-0.501
21137436,0.933,-1.662,0.571,0.405,-0.616
21147436,0.966,-1.634,0.529,0.434,-0.682
21157746,0.93,-1.599,0.519,0.384,-0.669
21167887,0.821,-1.575,0.525,0.193,-0.602
21177468,0.751,-1.565,0.564,0.016,-0.495
21187436,0.698,-1.558,0.543,-0.042,-0.437
21197436,0.652,-1.551,0.537,-0.034,-0.367
21207436,0.514,-1.555,0.489,-0.002,-0.158
21217436,0.475,-1.565,0.467,-0.002,-0.084
21227573,0.398,-1.573,0.394,-0.037,0.037
21237440,0.371,-1.579,0.352,-0.013,0.116
21247436,0.279,-1.584,0.265,0.039,0.079
21257436,0.241,-1.59,0.191,0.147,-0.01
21268065,0.335,-1.576,0.199,0.252,-0.094
21277456,0.385,-1.537,0.248,0.291,-0.048
21287436,0.481,-1.478,0.322,0.346,-0.089
21297436,0.444,-1.413,0.283,0.34,-0.042
21307444,0.372,-1.364,0.247,0.269,0.071
21317436,0.364,-1.325,-0.061,0.202,0.297
21327577,1.114,-1.2,-0.364,0.455,0.95
21337436,1.464,-0.97,-0.606,0.589,1.196
21347436,1.998,-0.686,-1.015,0.805,1.521
21357436,2.599,-0.332,-1.759,1.152,1.527
21369720,3.529,0.117,-2.546,1.66,1.793
21377492,4.084,0.63,-2.762,2.123,2.131
21387436,5.905,1.29,-3.353,3.61,3.255
21397436,6.184,2.027,-3.246,4.112,3.286
21407436,5.51,2.539,-2.133,4.394,2.551
21417675,3.876,2.657,-1.124,3.373,1.544
21427555,3.108,2.458,-0.991,2.703,1.171
21437460,2.226,2.099,-1.146,1.69,0.888
21447436,1.94,1.672,-1.323,0.922,1.079
21457436,1.923,1.295,-1.334,0.604,1.245
21467516,1.897,0.987,-1.118,0.124,1.528
21477739,1.691,0.714,-0.708,-0.0,1.535
21487460,1.581,0.461,-0.532,0.01,1.489
21497436,1.402,0.229,-0.343,-0.001,1.36
21507480,1.173,0.002,-0.299,-0.11,1.129
21517436,1.074,-0.212,-0.287,-0.203,1.015
21527592,0.843,-0.413,-0.271,-0.296,0.742
21537476,0.662,-0.611,-0.217,-0.33,0.531
21547436,0.579,-0.79,-0.184,-0.32,0.447
21557436,0.388,-0.953,-0.099,-0.292,0.237
21567868,0.299,-1.104,-0.005,-0.272,0.124
21577631,0.286,-1.223,-0.032,-0.247,0.142
21587593,0.489,-1.285,-0.189,-0.425,0.151
21597436,0.422,-1.307,-0.195,-0.357,0.111
21607436,0.448,-1.319,-0.245,-0.371,0.061
21617436,0.501,-1.309,-0.257,-0.43,0.0
21627436,0.5,-1.284,-0.214,-0.452,-0.017
21637436,0.491,-1.257,-0.21,-0.443,-0.026
21647436,0.432,-1.233,-0.142,-0.402,0.07
21657436,0.394,-1.215,-0.204,-0.324,0.096
21667604,0.397,-1.196,-0.267,-0.275,0.103
21678491,0.535,-1.156,-0.468,-0.22,0.136
21687476,0.999,-1.048,-0.951,-0.199,0.234
21697436,1.058,-0.897,-1.039,-0.099,0.173
21707436,1.445,-0.723,-1.403,0.01,0.348
21717440,1.698,-0.511,-1.616,0.229,0.468
21727436,1.872,-0.294,-1.721,0.315,0.666
21737586,2.359,-0.05,-1.932,0.654,1.186
21747459,2.773,0.242,-2.277,1.046,1.186
21757436,2.989,0.536,-2.436,1.229,1.221
21767436,3.139,0.801,-2.368,1.712,1.146
21778377,3.776,1.089,-3.05,2.04,0.892
21787581,3.614,1.357,-2.731,2.266,0.68
21797456,3.045,1.472,-1.847,2.381,0.438
21807484,2.343,1.407,-1.231,1.947,0.429
21817436,2.042,1.233,-1.056,1.681,0.482
21827436,1.617,1.007,-0.875,1.208,0.625
21837563,1.492,0.762,-0.861,0.999,0.699
21847464,1.51,0.553,-0.885,1.002,0.701
21857436,1.518,0.39,-0.876,1.061,0.642
21867436,1.494,0.259,-0.826,1.087,0.606
21877487,1.352,0.137,-0.664,1.071,0.491
21887678,1.128,-0.001,-0.468,0.942,0.406
21897448,1.013,-0.145,-0.367,0.868,0.371
21907444,0.815,-0.291,-0.229,0.726,0.291
21917671,0.676,-0.44,-0.158,0.625,0.205
21927436,0.606,-0.575,-0.125,0.572,0.158
21937539,0.519,-0.693,-0.038,0.505,0.116
21947495,0.423,-0.799,0.001,0.412,0.095
21957491,0.393,-0.89,0.01,0.381,0.096
21967436,0.309,-0.966,0.027,0.295,0.089
21978361,0.217,-1.037,0.045,0.187,0.102
21987879,0.175,-1.099,0.03,0.107,0.135
21997464,0.189,-1.141,0.03,0.094,0.161
22007436,0.23,-1.159,0.003,0.082,0.214
22017436,0.241,-1.158,-0.022,0.081,0.226
22027436,0.261,-1.144,-0.098,0.107,0.217
22037885,0.356,-1.112,-0.153,0.155,0.281
22047460,0.411,-1.061,-0.172,0.182,0.326
22057436,0.407,-1.007,-0.172,0.173,0.325
22067436,0.404,-0.958,-0.158,0.139,0.345
22077436,0.424,-0.911,-0.146,0.115,0.38
22087678,0.6,-0.845,-0.207,0.131,0.547
22097468,0.954,-0.728,-0.554,0.288,0.722
22107436,1.181,-0.566,-0.792,0.399,0.78
22117436,1.604,-0.363,-1.166,0.652,0.888
22127436,1.918,-0.12,-1.382,0.813,1.052
22137590,1.927,0.106,-1.377,0.815,1.073
22147467,1.828,0.27,-1.248,0.769,1.092
22157440,1.682,0.367,-0.971,0.772,1.135
22167589,1.621,0.417,-0.787,0.81,1.162
22177436,1.608,0.444,-0.622,0.974,1.118
22187703,1.649,0.464,-0.745,1.078,1.001
22197605,1.666,0.483,-0.842,1.062,0.97
22207456,1.594,0.488,-0.965,0.87,0.923
22217436,1.456,0.464,-0.962,0.647,0.879
22227436,1.404,0.42,-0.95,0.602,0.842
22237436,1.283,0.364,-0.896,0.544,0.739
22247559,1.136,0.287,-0.792,0.505,0.639
22257471,1.05,0.199,-0.717,0.468,0.607
22267436,0.859,0.098,-0.568,0.358,0.536
22277436,0.669,-0.024,-0.435,0.211,0.463
22288850,0.604,-0.146,-0.406,0.146,0.422
22297616,0.512,-0.258,-0.377,0.011,0.346
22307436,0.475,-0.357,-0.36,-0.1,0.293
22317436,0.497,-0.433,-0.401,-0.128,0.265
22327436,0.629,-0.471,-0.534,-0.202,0.265
22337436,0.787,-0.464,-0.669,-0.221,0.352
22347436,0.897,-0.425,-0.772,-0.186,0.416
22357436,1.093,-0.357,-0.925,-0.062,0.579
22367487,1.22,-0.266,-0.908,-0.018,0.815
22377440,1.35,-0.163,-0.882,-0.016,1.021
22387795,1.56,-0.045,-0.919,-0.055,1.259
22397957,1.808,0.099,-1.365,-0.045,1.185
22407464,2.19,0.28,-1.888,-0.06,1.108
22417675,3.08,0.561,-2.88,-0.152,1.08
22427436,3.504,0.922,-3.254,0.109,1.293
22437436,3.628,1.257,-3.383,0.327,1.27
22447559,3.428,1.497,-3.086,0.686,1.327
22457471,3.088,1.612,-2.599,0.779,1.474
22467436,2.955,1.634,-2.403,0.734,1.555
22477436,2.657,1.591,-2.118,0.552,1.506
22487436,2.396,1.482,-1.923,0.51,1.335
22497754,2.267,1.342,-1.825,0.544,1.23
22507460,2.08,1.187,-1.719,0.554,1.033
22517436,1.832,1.009,-1.536,0.49,0.87
22527436,1.72,0.822,-1.447,0.456,0.812
22537436,1.485,0.632,-1.253,0.388,0.696
22547559,1.214,0.423,-1.01,0.39,0.55
22557456,1.086,0.212,-0.897,0.375,0.484
22567436,0.856,0.007,-0.683,0.358,0.372
22577436,0.507,-0.217,-0.356,0.329,0.148
22587436,0.322,-0.449,-0.105,0.303,0.031
22598314,0.534,-0.622,0.426,0.299,-0.12
22607487,0.959,-0.68,0.881,0.296,-0.235
22617436,0.822,-0.688,0.75,0.237,-0.237
22627436,0.379,-0.753,0.329,0.127,-0.139
22637436,0.252,-0.862,0.013,0.191,-0.164
22647436,0.392,-0.938,-0.035,0.291,-0.26
22657436,0.833,-0.924,0.228,0.526,-0.604
22667603,1.276,-0.807,0.627,0.699,-0.863
22677436,1.424,-0.644,0.765,0.744,-0.943
22687436,1.388,-0.499,0.764,0.694,-0.928
22700147,1.05,-0.425,0.518,0.478,-0.779
22707583,0.861,-0.423,0.359,0.367,-0.691
22717436,0.676,-0.46,0.111,0.343,-0.572
22727436,0.759,-0.497,0.057,0.585,-0.481
22737436,0.877,-0.499,0.092,0.76,-0.427
22747436,1.137,-0.454,0.092,1.092,-0.302
22757559,1.306,-0.368,0.099,1.291,-0.17
22767448,1.353,-0.274,0.092,1.345,-0.117
22777436,1.516,-0.175,0.067,1.512,0.075
22787436,1.701,-0.058,-0.071,1.658,0.376
22797884,2.546,0.149,-0.738,2.189,1.069
22807631,3.202,0.477,-1.15,2.736,1.203
22817440,3.417,0.825,-1.086,2.994,1.239
22827436,3.769,1.152,-1.066,3.453,1.073
22837436,4.126,1.476,-0.942,3.884,1.023
22847573,4.131,1.756,-0.793,3.91,1.071
22857464,3.76,1.918,-0.807,3.445,1.274
22867436,3.535,1.962,-1.071,2.922,1.675
22877436,3.571,1.96,-1.224,2.773,1.889
22887436,3.832,1.975,-1.626,2.654,2.236
22897577,4.15,2.037,-2.203,2.658,2.303
22907635,4.078,2.096,-2.328,2.565,2.152
22917715,3.604,2.064,-2.316,2.095,1.798
22927436,2.879,1.888,-1.987,1.448,1.498
22937575,2.561,1.62,-1.813,1.138,1.406
22947464,2.011,1.302,-1.451,0.646,1.234
22957436,1.717,0.95,-1.223,0.311,1.164
22967437,1.642,0.628,-1.177,0.207,1.126
22977436,1.485,0.348,-1.11,0.051,0.985
22987555,1.275,0.086,-1.091,-0.065,0.657
22997464,1.285,-0.14,-1.184,-0.137,0.479
23008640,1.618,-0.276,-1.562,-0.387,0.167
23017590,1.64,-0.339,-1.519,-0.596,0.166
23027440,1.648,-0.382,-1.522,-0.619,0.119
23037934,1.729,-0.402,-1.404,-1.007,0.035
23047507,1.681,-0.411,-1.248,-1.125,-0.062
23057436,1.605,-0.429,-1.139,-1.125,-0.113
23067436,1.458,-0.464,-0.898,-1.14,-0.134
23077436,1.319,-0.52,-0.603,-1.169,-0.09
23087440,1.263,-0.581,-0.463,-1.173,-0.067
23097436,1.18,-0.639,-0.2,-1.157,-0.117
23110522,1.156,-0.691,-0.059,-1.154,0.027
23117496,1.118,-0.733,-0.048,-1.108,0.141
23127436,1.08,-0.768,-0.299,-1.03,0.129
23137436,1.286,-0.771,-0.785,-1.004,0.174
23147436,1.427,-0.728,-1.035,-0.976,0.107
23157436,1.34,-0.682,-1.034,-0.85,-0.063
23167698,0.984,-0.691,-0.772,-0.582,0.184
23177495,0.976,-0.734,-0.739,-0.376,0.515
23187436,1.457,-0.708,-0.94,0.059,1.111
23197436,1.938,-0.574,-1.042,0.389,1.587
23207516,2.216,-0.381,-1.166,0.489,1.821
23217710,3.138,-0.093,-1.905,0.694,2.395
23227464,4.318,0.366,-2.873,1.14,3.016
23237436,5.007,0.929,-3.421,1.47,3.348
23247437,5.982,1.545,-4.486,2.083,3.364
23257436,5.38,2.053,-3.745,2.732,2.729
23267555,5.913,2.423,-4.159,3.376,2.503
23277460,5.005,2.648,-2.903,3.445,2.179
23287436,3.953,2.582,-2.223,2.66,1.9
23297436,3.54,2.346,-2.049,2.319,1.719
23307914,3.01,2.039,-1.859,1.957,1.331
23317687,2.635,1.683,-1.602,1.864,0.951
23327464,2.467,1.332,-1.395,1.877,0.784
23337436,2.196,1.001,-0.99,1.924,0.376
23347436,1.881,0.67,-0.734,1.727,0.14
23357436,1.726,0.355,-0.627,1.607,0.059
23367917,1.382,0.052,-0.398,1.319,-0.103
23377436,1.088,-0.254,-0.13,1.061,-0.207
23387440,1.007,-0.532,-0.038,0.977,-0.243
23397436,0.808,-0.775,0.07,0.765,-0.251
23407436,0.789,-0.982,0.23,0.602,-0.455
23420576,1.007,-1.112,0.469,0.525,-0.72
23427456,1.069,-1.173,0.514,0.498,-0.794
23437436,1.152,-1.195,0.583,0.435,-0.894
23447436,1.103,-1.198,0.558,0.355,-0.882
23457436,1.106,-1.197,0.752,0.143,-0.798
23467436,0.999,-1.197,0.665,-0.076,-0.742
23477577,0.942,-1.207,0.61,-0.125,-0.707
23487440,0.807,-1.226,0.5,-0.102,-0.626
23497436,0.711,-1.258,0.434,0.099,-0.555
23507436,0.665,-1.288,0.374,0.225,-0.502
23519315,0.703,-1.302,0.293,0.462,-0.441
23527588,0.736,-1.295,0.255,0.6,-0.341
23537461,0.745,-1.274,0.246,0.641,-0.291
23547436,0.721,-1.25,0.233,0.664,-0.154
23557436,0.712,-1.225,0.356,0.612,0.07
23567436,0.779,-1.189,0.503,0.535,0.26
23577555,0.768,-1.146,0.399,0.593,0.282
23587468,0.988,-1.079,0.034,0.985,0.056
23597436,1.191,-0.972,-0.162,1.178,0.063
23607436,1.603,-0.812,-0.457,1.511,0.277
23617590,2.713,-0.511,-0.757,2.344,1.137
23627622,3.528,-0.057,-0.938,2.836,1.876
23637436,5.156,0.569,-2.317,3.633,2.831
23647436,6.179,1.348,-3.537,4.143,2.917
23657436,6.093,2.046,-3.438,4.333,2.554
23668597,5.094,2.45,-3.143,3.445,2.049
23677479,4.096,2.52,-2.825,2.298,1.875
23687436,3.728,2.401,-2.565,2.037,1.781
23697436,3.378,2.209,-2.378,1.768,1.62
23707436,3.262,1.99,-2.387,1.62,1.523
23718859,2.782,1.738,-2.163,1.172,1.298
23727714,2.145,1.403,-1.721,0.71,1.065
23737460,1.86,1.029,-1.501,0.541,0.956
23747436,1.444,0.652,-1.16,0.265,0.818
23757436,1.213,0.282,-1.007,0.009,0.676
23767436,1.172,-0.038,-1.009,-0.104,0.588
23777598,1.171,-0.29,-1.04,-0.28,0.46
23787475,1.113,-0.49,-0.999,-0.39,0.299
23797436,1.083,-0.652,-0.972,-0.418,0.231
23807436,0.835,-0.803,-0.756,-0.331,0.128
23817436,0.682,-0.959,-0.569,-0.374,-0.04
23828790,0.577,-1.101,-0.31,-0.482,-0.066
23837476,0.58,-1.214,-0.258,-0.499,-0.146
23847436,0.62,-1.287,-0.173,-0.558,-0.208
23857436,0.654,-1.325,-0.155,-0.595,-0.223
23867436,0.783,-1.326,-0.181,-0.72,-0.249
23877436,0.905,-1.288,-0.198,-0.854,-0.223
23887577,0.969,-1.228,-0.189,-0.932,-0.186
23897448,0.97,-1.164,-0.167,-0.949,-0.117
23907436,0.885,-1.115,-0.12,-0.875,-0.042
23917675,0.841,-1.082,-0.105,-0.833,-0.045
23928802,0.756,-1.062,-0.048,-0.755,0.002
23937590,0.739,-1.05,-0.015,-0.738,0.04
23947456,0.751,-1.033,0.003,-0.75,0.025
23957436,0.776,-1.008,-0.019,-0.776,0.021
23967436,0.829,-0.971,-0.191,-0.807,-0.023
23977436,0.864,-0.925,-0.324,-0.801,0.003
23987551,0.931,-0.87,-0.485,-0.786,0.117
23997468,1.132,-0.791,-0.794,-0.694,0.411
24007436,1.471,-0.663,-1.146,-0.605,0.695
24017436,2.626,-0.391,-2.212,-0.428,1.349
24027491,3.862,0.092,-3.477,-0.04,1.681
24038036,4.546,0.68,-4.205,0.067,1.726
24047456,5.644,1.332,-5.314,0.606,1.801
24057436,5.369,1.919,-4.929,1.615,1.39
24067436,5.543,2.347,-4.979,2.009,1.376
24077436,5.975,2.729,-5.064,2.528,1.915
24087555,4.44,2.88,-3.131,2.583,1.799
24097490,4.049,2.758,-2.703,2.494,1.695
24107436,3.221,2.505,-2.261,1.862,1.339
24117436,2.597,2.126,-1.94,1.44,0.953
24128834,2.285,1.711,-1.433,1.678,0.591
24137715,2.206,1.331,-1.141,1.833,0.455
24147480,1.979,0.991,-0.69,1.831,0.292
24157436,1.747,0.668,-0.536,1.646,0.241
24167590,1.149,0.32,-0.272,1.099,0.194
24177436,0.78,-0.062,-0.092,0.77,0.092
24187436,0.67,-0.411,-0.022,0.667,0.06
24197586,0.597,-0.699,0.187,0.561,-0.083
24207436,0.645,-0.92,0.381,0.459,-0.244
24217436,0.606,-1.083,0.32,0.416,-0.302
24227436,0.78,-1.186,0.619,0.302,-0.365
24237930,0.873,-1.226,0.731,0.186,-0.438
24247456,0.841,-1.24,0.705,0.124,-0.443
24257436,0.73,-1.258,0.583,0.06,-0.435
24267436,0.661,-1.282,0.499,0.037,-0.431
24277436,0.638,-1.301,0.479,0.054,-0.418
24288041,0.632,-1.308,0.432,0.148,-0.437
24297563,0.569,-1.311,0.24,0.266,-0.442
24307436,0.531,-1.315,0.166,0.29,-0.413
24317436,0.432,-1.322,0.064,0.255,-0.342
24327436,0.307,-1.343,0.099,0.128,-0.261
24339325,0.266,-1.367,0.111,0.071,-0.231
24347496,0.235,-1.382,0.188,0.033,-0.137
24357484,0.283,-1.382,0.227,0.145,-0.087
24367436,0.351,-1.357,0.252,0.234,-0.069
24377436,0.451,-1.309,0.228,0.389,0.011
24387436,0.499,-1.244,0.19,0.441,0.134
24397564,0.539,-1.174,0.068,0.443,0.3
24407460,0.956,-1.059,-0.375,0.634,0.609
24417678,1.618,-0.841,-0.972,1.01,0.809
24427436,1.986,-0.549,-1.246,1.17,1.011
24437520,2.238,-0.249,-1.312,1.373,1.185
24447723,2.609,0.055,-1.167,1.608,1.69
24457436,3.103,0.388,-1.264,1.941,2.064
24467436,4.86,0.896,-2.479,3.044,2.865
24477436,5.842,1.59,-3.315,3.877,2.848
24487436,5.749,2.215,-3.352,3.894,2.58
24497507,4.401,2.521,-2.646,2.875,2.026
24507519,2.813,2.409,-1.768,1.456,1.633
24517436,2.388,2.077,-1.52,0.962,1.571
24527436,2.003,1.713,-1.314,0.385,1.462
24538379,1.859,1.357,-1.304,0.175,1.312
24547726,1.856,1.054,-1.333,0.157,1.282
24557456,1.873,0.812,-1.426,0.115,1.208
24567437,1.702,0.6,-1.32,0.053,1.072
24577436,1.592,0.4,-1.242,-0.001,0.996
24587814,1.37,0.204,-1.061,-0.07,0.864
24597569,1.175,0.004,-0.917,-0.133,0.723
24607437,1.094,-0.182,-0.848,-0.171,0.67
24617437,0.95,-0.351,-0.742,-0.194,0.56
24627436,0.885,-0.502,-0.689,-0.212,0.514
24637582,0.721,-0.641,-0.555,-0.187,0.421
24647671,0.59,-0.777,-0.429,-0.162,0.371
24657440,0.529,-0.897,-0.359,-0.152,0.356
24667606,0.481,-0.996,-0.262,-0.177,0.363
24677436,0.471,-1.071,-0.152,-0.259,0.362
24687436,0.47,-1.123,-0.094,-0.291,0.357
24697567,0.477,-1.153,-0.046,-0.318,0.353
24707475,0.448,-1.169,-0.007,-0.302,0.331
24717436,0.481,-1.172,-0.026,-0.373,0.303
24727436,0.532,-1.156,0.01,-0.452,0.282
24737440,0.474,-1.135,-0.029,-0.432,0.195
24749059,0.498,-1.114,-0.133,-0.461,0.133
24757484,0.522,-1.083,-0.226,-0.455,0.123
24767436,0.63,-1.035,-0.486,-0.383,0.119
24777436,0.672,-0.974,-0.558,-0.334,0.171
24787436,0.682,-0.912,-0.6,-0.214,0.243
24797436,0.617,-0.864,-0.556,-0.122,0.237
24807539,0.557,-0.833,-0.493,-0.112,0.234
24817487,0.555,-0.81,-0.457,-0.144,0.281
24827436,0.624,-0.778,-0.484,-0.221,0.325
24837436,0.82,-0.717,-0.602,-0.25,0.497
24849174,1.6,-0.555,-1.183,-0.156,1.066
24857671,2.433,-0.244,-1.792,0.202,1.633
24867436,3.137,0.172,-2.43,0.584,1.897
24877436,4.301,0.703,-3.676,1.346,1.781
24887432,4.028,1.209,-3.394,1.639,1.421
24897743,3.4,1.491,-2.461,1.939,1.319
24907532,3.405,1.627,-2.37,2.18,1.107
24917711,2.998,1.676,-1.714,2.288,0.904
24927436,2.866,1.639,-1.383,2.376,0.812
24937437,2.545,1.547,-0.931,2.299,0.569
24947573,2.228,1.392,-0.778,2.023,0.516
24957630,2.093,1.21,-0.794,1.868,0.508
24967448,1.924,1.025,-0.959,1.584,0.522
24977436,1.743,0.834,-0.943,1.383,0.485
24987436,1.638,0.648,-0.848,1.322,0.466
24997584,1.398,0.459,-0.64,1.188,0.369
25007504,1.141,0.253,-0.418,1.01,0.329
25017437,1.002,0.047,-0.291,0.909,0.307
25027436,0.741,-0.158,-0.113,0.671,0.292
25038454,0.521,-0.369,0.003,0.449,0.264
25047468,0.443,-0.564,0.058,0.364,0.245
25057631,0.29,-0.737,0.115,0.202,0.173
25067452,0.132,-0.9,0.041,0.075,0.101
25077436,0.047,-1.046,-0.045,0.007,0.009
25087581,0.195,-1.144,-0.089,-0.121,-0.125
25097456,0.275,-1.186,-0.115,-0.223,-0.112
25107437,0.232,-1.205,-0.098,-0.166,-0.129
25117436,0.351,-1.201,-0.076,-0.308,-0.15
25127437,0.37,-1.173,0.018,-0.345,-0.133
25137563,0.35,-1.142,0.036,-0.322,-0.134
25147456,0.307,-1.116,0.063,-0.286,-0.094
25157635,0.26,-1.098,0.019,-0.248,-0.076
25167626,0.246,-1.081,-0.012,-0.233,-0.078
25177437,0.272,-1.059,-0.094,-0.254,-0.023
25187581,0.33,-1.023,-0.162,-0.274,0.09
25197456,0.368,-0.977,-0.191,-0.277,0.147
25207436,0.398,-0.926,-0.287,-0.219,0.168
25217436,0.451,-0.869,-0.356,-0.201,0.189
25227436,0.513,-0.806,-0.415,-0.226,0.199
25237569,0.726,-0.719,-0.579,-0.256,0.356
25247456,1.509,-0.535,-1.024,-0.185,1.093
25258811,1.935,-0.252,-1.373,-0.022,1.363
25267468,2.64,0.097,-2.113,0.497,1.502
25277440,3.539,0.546,-3.12,1.062,1.289
25287961,3.847,1.025,-3.454,1.312,1.071
25297452,3.582,1.394,-2.921,1.956,0.688
25307484,3.621,1.644,-2.585,2.515,0.316
25317436,3.29,1.792,-2.047,2.548,0.382
25327436,2.701,1.789,-1.307,2.269,0.664
25337436,2.016,1.63,-1.125,1.427,0.872
25347440,1.845,1.397,-1.131,1.084,0.975
25357584,1.824,1.185,-1.235,0.64,1.181
25367715,1.875,1.013,-1.374,0.578,1.137
25377460,1.855,0.876,-1.366,0.643,1.078
25387436,1.589,0.731,-1.128,0.738,0.841
25397436,1.242,0.543,-0.827,0.702,0.604
25407436,1.088,0.337,-0.707,0.63,0.535
25417791,0.853,0.131,-0.556,0.48,0.432
25427460,0.638,-0.08,-0.423,0.324,0.352
25437436,0.558,-0.276,-0.374,0.278,0.307
25447436,0.396,-0.454,-0.269,0.177,0.231
25457436,0.247,-0.622,-0.181,0.104,0.131
25467691,0.173,-0.773,-0.135,0.071,0.081
25477471,0.1,-0.901,-0.071,0.035,0.061
25487436,0.076,-1.004,-0.0,-0.001,0.076
25497495,0.115,-1.073,0.037,-0.019,0.107
25507436,0.163,-1.109,0.06,-0.071,0.134
25517436,0.199,-1.119,0.057,-0.114,0.153
25527436,0.237,-1.11,-0.113,-0.159,0.135
25537436,0.364,-1.075,-0.288,-0.156,0.161
25547436,0.446,-1.016,-0.356,-0.164,0.212
25557436,0.473,-0.95,-0.441,-0.13,0.11
25568850,0.515,-0.883,-0.496,-0.127,0.062
25577472,0.543,-0.817,-0.523,-0.118,0.082
25587436,0.715,-0.737,-0.676,-0.142,0.185
25597436,0.976,-0.62,-0.864,-0.238,0.388
25607436,1.066,-0.485,-0.89,-0.282,0.515
25617436,1.255,-0.345,-0.992,-0.316,0.702
25627567,1.706,-0.162,-1.272,-0.254,1.108
25637448,2.042,0.069,-1.509,-0.174,1.364
25647436,2.513,0.339,-1.965,0.017,1.567
25657436,2.999,0.652,-2.501,0.182,1.645
25669222,3.607,1.013,-3.183,0.291,1.671
25677586,3.859,1.381,-3.429,0.355,1.734
25687436,3.953,1.695,-3.486,0.521,1.789
25697436,3.719,1.909,-3.23,0.595,1.744
25707436,3.46,2.005,-2.779,0.728,1.929
25717436,3.397,2.027,-2.486,0.896,2.135
25727531,3.259,2.006,-2.36,0.909,2.056
25737476,2.883,1.915,-2.153,0.716,1.779
25747436,2.41,1.735,-1.89,0.44,1.429
25757436,2.155,1.5,-1.75,0.363,1.205
25767475,1.662,1.222,-1.407,0.256,0.846
25777690,1.181,0.887,-0.993,0.175,0.614
25787464,0.983,0.544,-0.825,0.144,0.516
25797436,0.613,0.21,-0.487,0.119,0.353
25807436,0.508,-0.104,-0.423,0.077,0.271
25817436,0.429,-0.367,-0.38,0.084,0.181
25827555,0.146,-0.609,-0.098,0.02,-0.106
25837475,0.186,-0.819,0.127,-0.008,-0.136
25847436,0.762,-0.907,0.699,-0.056,-0.3
25857436,0.792,-0.899,0.747,0.016,-0.263
25868861,0.946,-0.866,0.815,0.15,-0.456
25878683,0.853,-0.826,0.508,0.267,-0.632
25887468,0.846,-0.8,0.388,0.312,-0.685
25897436,0.788,-0.781,0.146,0.323,-0.704
25907436,0.712,-0.775,0.082,0.282,-0.648
25917675,0.58,-0.787,0.144,0.19,-0.529
25927559,0.515,-0.813,0.221,0.166,-0.435
25937468,0.491,-0.836,0.213,0.21,-0.389
25947436,0.515,-0.848,0.174,0.343,-0.343
25957436,0.554,-0.843,0.138,0.431,-0.319
25967436,0.548,-0.829,0.118,0.344,-0.41
25977691,0.567,-0.81,0.089,0.495,-0.261
25987460,0.647,-0.777,0.138,0.562,-0.288
25997480,0.708,-0.73,0.163,0.625,-0.29
26007436,0.846,-0.666,0.207,0.792,-0.212
26017436,0.895,-0.59,0.19,0.849,-0.21
26027589,0.892,-0.52,0.175,0.852,-0.198
26037806,0.927,-0.459,0.128,0.917,-0.06
26047436,1.246,-0.368,-0.214,1.199,0.264
26057436,1.747,-0.203,-0.444,1.502,0.774
26067436,2.518,0.07,-0.291,2.169,1.245
26079177,2.748,0.393,0.345,2.446,1.205
26087444,2.804,0.672,0.317,2.53,1.168
26097547,3.205,0.935,-0.708,3.023,0.796
26107444,5.487,1.433,-3.813,3.915,0.49
26117436,6.755,2.205,-5.135,4.361,0.499
26127436,7.325,2.993,-6.067,4.0,0.923
26137436,5.063,3.391,-4.038,2.492,1.765
26147791,4.08,3.309,-2.896,2.074,1.988
26157444,3.237,3.014,-1.908,1.905,1.791
26167585,2.853,2.624,-2.001,1.56,1.306
26177524,2.695,2.239,-2.096,1.294,1.093
26187976,2.277,1.859,-1.922,0.942,0.776
26197460,1.805,1.449,-1.542,0.726,0.594
26207436,1.589,1.043,-1.375,0.636,0.481
26217436,1.305,0.663,-1.18,0.54,0.14
26227436,1.226,0.323,-1.104,0.511,-0.149
26237436,1.141,0.038,-1.029,0.427,-0.25
26247579,1.063,-0.202,-0.933,0.241,-0.45
26257436,1.012,-0.4,-0.854,0.0,-0.543
26267436,0.961,-0.563,-0.788,-0.104,-0.54
26278890,0.876,-0.7,-0.617,-0.318,-0.534
26287714,0.76,-0.823,-0.521,-0.284,-0.475
26297456,0.828,-0.917,-0.462,-0.578,-0.372
26307436,1.018,-0.954,-0.38,-0.852,-0.406
26317436,1.073,-0.948,-0.329,-0.945,-0.386
26327436,1.067,-0.93,-0.261,-0.967,-0.368
26337536,0.977,-0.919,0.028,-0.96,-0.181
26347499,0.851,-0.928,0.137,-0.819,-0.185
26357436,0.805,-0.947,0.104,-0.759,-0.246
26367436,0.897,-0.949,-0.005,-0.813,-0.378
26377436,1.086,-0.911,-0.095,-1.002,-0.409
26388181,1.155,-0.846,-0.131,-1.088,-0.365
26397467,1.272,-0.768,-0.066,-1.242,-0.267
26407436,1.25,-0.69,-0.012,-1.235,-0.195
26417671,1.175,-0.636,-0.015,-1.163,-0.164
26427436,1.002,-0.616,-0.197,-0.973,-0.133
26437736,0.938,-0.623,-0.479,-0.805,-0.044
26447460,0.97,-0.626,-0.644,-0.724,0.054
26457436,1.123,-0.603,-0.976,-0.519,0.199
26467436,1.259,-0.549,-1.135,-0.394,0.377
26477436,1.77,-0.429,-1.62,-0.146,0.7
26487788,2.703,-0.171,-2.427,0.176,1.176
26497456,3.362,0.209,-2.914,0.327,1.646
26507436,4.708,0.727,-4.105,0.68,2.203
26517436,6.18,1.439,-5.363,1.474,2.694
26527436,6.07,2.133,-5.127,2.043,2.527
26537577,6.111,2.647,-5.14,2.531,2.125
26547475,4.962,2.9,-3.786,2.549,1.948
26557436,4.508,2.893,-3.263,2.415,1.96
26567436,3.63,2.716,-2.294,2.201,1.752
26577436,3.256,2.416,-2.0,2.041,1.561
26587528,3.121,2.108,-1.937,1.973,1.448
26597675,2.617,1.78,-1.613,1.758,1.075
26607843,2.053,1.392,-1.114,1.575,0.7
26617551,1.846,0.993,-0.938,1.506,0.508
26627444,1.557,0.621,-0.669,1.389,0.218
26637436,1.221,0.257,-0.54,1.093,0.07
26647436,0.992,-0.091,-0.455,0.879,0.075
26657436,0.558,-0.434,-0.246,0.493,0.091
26668106,0.295,-0.776,-0.063,0.264,0.114
26677487,0.264,-1.067,0.003,0.24,0.11
26688723,0.314,-1.283,0.152,0.275,0.011
26697686,0.484,-1.415,0.335,0.301,-0.178
26707436,1.009,-1.428,0.907,0.306,-0.318
26717605,1.167,-1.351,1.057,0.223,-0.441
26727480,1.061,-1.274,0.935,0.205,-0.458
26737436,0.964,-1.227,0.824,0.195,-0.459
26747436,0.796,-1.211,0.648,0.163,-0.433
26757436,0.789,-1.209,0.595,0.14,-0.5
26767436,0.819,-1.194,0.623,0.17,-0.505
26777576,0.893,-1.162,0.665,0.315,-0.506
26787440,0.929,-1.116,0.633,0.463,-0.498
26797809,0.93,-1.067,0.6,0.535,-0.468
26807543,0.836,-1.031,0.517,0.561,-0.342
26817436,0.674,-1.023,0.456,0.469,-0.162
26827436,0.609,-1.035,0.394,0.452,-0.106
26837436,0.556,-1.049,0.272,0.485,-0.016
26847436,0.654,-1.046,0.209,0.619,0.01
26857569,0.752,-1.014,0.173,0.731,-0.042
26867460,0.975,-0.945,-0.034,0.963,-0.151
26877436,1.076,-0.848,-0.12,1.047,-0.217
26887436,1.029,-0.759,-0.09,1.006,-0.195
26897642,0.891,-0.706,-0.083,0.887,0.03
26907594,1.3,-0.628,-0.304,1.119,0.587
26917773,2.021,-0.436,-0.604,1.539,1.163
26927436,3.71,-0.013,-2.152,2.53,1.654
26937436,5.273,0.679,-3.53,3.446,1.863
26947436,6.082,1.477,-4.209,3.856,2.098
26957436,6.522,2.225,-4.258,4.451,2.144
26967436,5.786,2.753,-3.08,4.579,1.738
26977436,4.925,2.963,-2.69,3.798,1.612
26987436,3.734,2.872,-2.574,2.172,1.613
26997527,3.543,2.623,-2.884,1.217,1.659
27007436,3.512,2.384,-2.983,0.938,1.598
27017436,3.164,2.138,-2.813,0.552,1.337
27027436,2.464,1.812,-2.268,0.282,0.921
27037764,2.144,1.431,-1.998,0.197,0.751
27047436,1.597,1.027,-1.536,0.08,0.433
27057436,1.231,0.603,-1.205,0.004,0.251
27067436,1.082,0.211,-1.062,-0.069,0.196
27077436,0.857,-0.136,-0.818,-0.226,0.117
27087436,0.641,-0.454,-0.561,-0.293,0.105
27097480,0.632,-0.722,-0.492,-0.393,0.057
27107722,0.636,-0.925,-0.283,-0.566,0.058
27117460,0.704,-1.067,-0.234,-0.649,0.137
27127436,0.738,-1.157,-0.224,-0.684,0.162
27137436,0.723,-1.216,-0.251,-0.671,0.091
27147436,0.769,-1.248,-0.286,-0.714,0.018
27157550,0.806,-1.254,-0.268,-0.76,0.011
27167603,0.89,-1.235,-0.172,-0.873,-0.025
27177436,0.945,-1.195,-0.0,-0.944,-0.055
27187440,0.961,-1.147,0.066,-0.957,-0.072
27197778,0.941,-1.1,0.19,-0.918,-0.077
27207650,0.931,-1.059,0.24,-0.896,-0.076
27217436,0.935,-1.02,0.236,-0.901,-0.08
27227436,0.914,-0.983,0.156,-0.887,-0.156
27237436,0.929,-0.947,-0.01,-0.896,-0.249
27247585,0.915,-0.911,-0.055,-0.882,-0.237
27257460,0.856,-0.885,-0.13,-0.827,-0.181
27267436,0.724,-0.879,-0.113,-0.704,-0.124
27277436,0.637,-0.892,-0.095,-0.628,-0.051
27287436,0.545,-0.915,-0.153,-0.506,0.13
27298366,0.728,-0.915,-0.504,-0.395,0.347
27307658,1.017,-0.855,-0.823,-0.355,0.48
27317440,1.981,-0.662,-1.769,-0.302,0.84
27327436,2.998,-0.284,-2.723,-0.136,1.246
27337436,3.479,0.18,-3.131,0.053,1.516
27347436,4.842,0.744,-4.228,0.478,2.311
27357436,5.559,1.41,-4.736,0.978,2.741
27367436,6.099,2.056,-4.976,2.378,2.604
27377436,5.785,2.566,-4.383,3.224,1.964
27387436,5.366,2.859,-4.034,3.119,1.67
27397436,4.013,2.865,-2.634,2.716,1.338
27409060,2.895,2.57,-1.92,1.656,1.396
27417922,2.372,2.136,-1.763,0.818,1.36
27427436,2.243,1.71,-1.751,0.671,1.231
27437436,2.056,1.331,-1.658,0.777,0.936
27447436,1.925,0.99,-1.527,0.898,0.752
27457436,1.59,0.666,-1.104,1.058,0.439
27467495,1.15,0.322,-0.672,0.902,0.239
27477531,0.917,-0.023,-0.508,0.746,0.164
27487436,0.533,-0.359,-0.294,0.441,0.056
27497436,0.311,-0.685,-0.154,0.271,-0.007
27507948,0.262,-0.963,-0.04,0.252,-0.058
27517786,0.358,-1.166,-0.083,0.309,-0.162
27527476,0.416,-1.296,-0.055,0.365,-0.192
27537436,0.47,-1.375,-0.003,0.418,-0.213
27547440,0.525,-1.413,0.173,0.453,-0.202
27557436,0.553,-1.422,0.291,0.424,-0.205
27567740,0.616,-1.407,0.421,0.401,-0.203
27577535,0.732,-1.364,0.602,0.365,-0.202
27587436,0.811,-1.299,0.706,0.29,-0.276
27597440,0.81,-1.229,0.704,0.261,-0.306
27607436,0.841,-1.161,0.696,0.225,-0.416
27617635,0.924,-1.087,0.773,0.196,-0.466
27627682,0.956,-1.008,0.81,0.185,-0.473
27637436,0.875,-0.944,0.741,0.167,-0.435
27647436,0.594,-0.928,0.464,0.206,-0.308
27657436,0.473,-0.953,0.322,0.24,-0.25
27667606,0.371,-0.99,0.109,0.302,-0.185
27677436,0.392,-1.019,-0.016,0.337,-0.2
27687436,0.411,-1.03,-0.051,0.341,-0.224
27697436,0.364,-1.033,0.037,0.311,-0.186
27707436,0.337,-1.036,0.166,0.244,-0.163
27717531,0.304,-1.036,0.193,0.206,-0.113
27727436,0.187,-1.045,0.08,0.155,-0.068
27737436,0.408,-1.032,-0.202,0.309,0.175
27747436,0.773,-0.948,-0.284,0.574,0.433
27757436,2.493,-0.642,-1.654,1.423,1.206
27767436,3.38,-0.107,-2.455,2.103,0.99
27777436,3.724,0.447,-2.827,2.21,0.995
27787436,4.366,0.984,-3.344,2.535,1.206
27797436,5.104,1.548,-3.202,3.721,1.397
27807436,5.569,2.107,-3.244,4.212,1.658
27820743,5.255,2.542,-2.967,3.869,1.961
27827536,3.742,2.654,-1.791,2.642,1.952
27837436,3.014,2.468,-1.215,2.083,1.809
27847436,2.156,2.127,-0.842,1.28,1.517
27857436,1.721,1.7,-0.899,0.888,1.168
27867436,1.602,1.293,-0.953,0.75,1.046
27877551,1.575,0.951,-1.132,0.547,0.947
27887480,1.622,0.681,-1.251,0.395,0.954
27897436,1.665,0.475,-1.302,0.356,0.976
27907436,1.551,0.305,-1.218,0.229,0.933
27917715,1.395,0.139,-1.062,0.095,0.899
27928158,1.326,-0.015,-0.986,0.041,0.886
27937483,1.118,-0.166,-0.843,0.011,0.734
27947436,0.947,-0.324,-0.715,0.039,0.621
27957436,0.881,-0.471,-0.667,0.041,0.574
27967436,0.749,-0.603,-0.561,0.038,0.495
27977436,0.626,-0.729,-0.43,-0.012,0.455
27987436,0.564,-0.842,-0.374,-0.046,0.42
27997436,0.461,-0.942,-0.239,-0.133,0.371
28007436,0.422,-1.028,-0.163,-0.2,0.333
28017436,0.422,-1.09,-0.149,-0.238,0.315
28027731,0.398,-1.133,-0.1,-0.277,0.267
28037770,0.342,-1.166,-0.069,-0.25,0.222
28047436,0.345,-1.189,-0.074,-0.277,0.192
28057436,0.549,-1.173,-0.14,-0.505,0.161
28067436,0.7,-1.112,-0.188,-0.632,0.234
28077901,0.714,-1.038,-0.258,-0.628,0.219
28087460,0.786,-0.962,-0.406,-0.624,0.252
28097436,0.778,-0.888,-0.498,-0.553,0.229
28107436,0.752,-0.828,-0.502,-0.511,0.229
28117436,0.744,-0.779,-0.567,-0.429,0.219
28127686,0.781,-0.731,-0.646,-0.384,0.212
28137456,0.886,-0.672,-0.757,-0.383,0.255
28147436,1.413,-0.55,-1.299,-0.331,0.447
28157436,1.941,-0.333,-1.8,-0.264,0.676
28167586,2.189,-0.075,-2.03,-0.161,0.802
28177575,2.585,0.198,-2.345,0.309,1.043
28187479,2.508,0.444,-2.118,0.781,1.094
28197436,2.565,0.629,-2.102,0.958,1.115
28207436,2.464,0.763,-1.59,1.481,1.162
28217440,2.457,0.848,-1.517,1.644,1.015
28229172,3.756,1.053,-2.908,1.958,1.347
28237856,3.584,1.33,-2.59,2.257,1.02
28247610,3.444,1.499,-2.502,2.225,0.804
28257436,3.186,1.573,-2.357,2.032,0.681
28267436,2.448,1.507,-1.862,1.487,0.557
28277436,2.171,1.33,-1.672,1.272,0.546
28287436,1.813,1.111,-1.413,1.007,0.525
28297580,1.657,0.874,-1.311,0.902,0.462
28307460,1.597,0.659,-1.259,0.893,0.412
28317437,1.482,0.468,-1.123,0.89,0.379
28327488,1.31,0.284,-0.972,0.818,0.322
28337652,1.121,0.098,-0.84,0.689,0.278
28347586,1.055,-0.075,-0.794,0.625,0.3
28357460,0.928,-0.231,-0.695,0.549,0.276
28367436,0.869,-0.37,-0.658,0.521,0.227
28377436,0.811,-0.489,-0.592,0.509,0.22
28387436,0.718,-0.594,-0.513,0.475,0.162
28397590,0.666,-0.687,-0.468,0.46,0.112
28407475,0.568,-0.771,-0.391,0.403,0.084
28417694,0.478,-0.85,-0.317,0.329,0.141
28428841,0.447,-0.919,-0.307,0.285,0.155
28437773,0.539,-0.958,-0.404,0.269,0.234
28447472,0.636,-0.96,-0.511,0.284,0.249
28457436,0.675,-0.938,-0.583,0.272,0.204
28467436,0.728,-0.904,-0.676,0.221,0.156
28477436,0.663,-0.871,-0.632,0.149,0.134
28487436,0.618,-0.851,-0.596,0.094,0.131
28497586,0.582,-0.838,-0.568,0.002,0.129
28507436,0.621,-0.821,-0.59,-0.074,0.179
28517436,0.668,-0.792,-0.614,-0.083,0.25
28527436,0.839,-0.738,-0.725,-0.093,0.412
28538587,1.028,-0.65,-0.857,-0.008,0.567
28547511,1.093,-0.549,-0.917,0.042,0.594
28557436,1.125,-0.455,-0.934,0.157,0.607
28567436,1.064,-0.381,-0.865,0.128,0.606
28577436,1.01,-0.334,-0.774,0.097,0.641
28587735,0.917,-0.311,-0.64,0.016,0.657
28597540,0.888,-0.305,-0.55,0.021,0.697
28607436,0.858,-0.304,-0.491,0.031,0.703
28617436,0.829,-0.308,-0.452,0.079,0.691
28627436,0.834,-0.311,-0.449,0.094,0.697
28638190,0.83,-0.311,-0.442,0.087,0.697
28647585,0.817,-0.31,-0.445,0.044,0.684
28657479,0.795,-0.311,-0.437,0.016,0.664
28667610,0.776,-0.314,-0.421,0.003,0.651
28677436,0.75,-0.319,-0.42,0.015,0.621
28687436,0.666,-0.332,-0.353,0.017,0.565
28697436,0.65,-0.351,-0.322,0.021,0.564
28707436,0.793,-0.349,-0.348,0.107,0.705
28717436,1.007,-0.305,-0.525,0.253,0.821
28727436,1.064,-0.237,-0.573,0.314,0.84
28737528,1.159,-0.166,-0.527,0.327,0.979
28747710,1.135,-0.101,-0.363,0.262,1.043
28757460,1.107,-0.056,-0.275,0.24,1.045
28767436,1.066,-0.029,-0.249,0.272,1.0
28777436,0.982,-0.021,-0.231,0.291,0.909
28787436,0.966,-0.026,-0.186,0.315,0.895
28797559,0.843,-0.046,-0.034,0.338,0.771
28807471,0.839,-0.075,-0.025,0.421,0.726
28817436,0.981,-0.081,-0.263,0.547,0.771
28827436,1.503,-0.011,-1.023,0.812,0.743
28838858,2.009,0.159,-1.596,0.975,0.732
28847718,2.033,0.349,-1.641,0.955,0.728
28857456,1.699,0.459,-1.27,0.789,0.807
28867436,1.332,0.462,-0.811,0.606,0.865
28877436,1.193,0.403,-0.637,0.556,0.842
28887436,1.095,0.329,-0.445,0.526,0.851
28897559,1.057,0.253,-0.366,0.57,0.811
28907456,1.096,0.192,-0.378,0.651,0.795
28917675,1.258,0.166,-0.604,0.751,0.808
28927436,1.376,0.175,-0.811,0.79,0.782
28937436,1.4,0.198,-0.859,0.795,0.767
28947715,1.449,0.221,-0.933,0.813,0.753
28957456,1.579,0.258,-1.03,0.924,0.761
28967436,1.65,0.307,-1.049,1.017,0.767
28977436,1.677,0.354,-1.038,1.11,0.709
28987556,1.631,0.385,-0.933,1.134,0.709
28997480,1.59,0.397,-0.881,1.111,0.719
29007436,1.492,0.387,-0.824,1.031,0.696
29017436,1.476,0.363,-0.872,0.904,0.775
29027436,1.499,0.343,-0.943,0.844,0.804
29037766,1.404,0.316,-0.919,0.699,0.797
29048083,1.255,0.266,-0.822,0.584,0.748
29057443,1.213,0.203,-0.797,0.529,0.746
29067436,1.16,0.142,-0.782,0.477,0.712
29077440,1.135,0.085,-0.824,0.402,0.669
29087436,1.111,0.035,-0.83,0.349,0.652
29097436,1.079,-0.011,-0.888,0.236,0.565
29107436,1.079,-0.05,-0.917,0.132,0.554
29117436,1.077,-0.08,-0.931,0.079,0.535
29127436,1.036,-0.108,-0.874,0.017,0.557
29137436,0.942,-0.143,-0.759,-0.027,0.557
29147524,0.909,-0.184,-0.726,-0.067,0.544
29157940,0.821,-0.228,-0.636,-0.091,0.51
29167597,0.728,-0.28,-0.562,-0.149,0.438
29177436,0.681,-0.334,-0.515,-0.17,0.413
29187436,0.597,-0.388,-0.429,-0.218,0.354
29197436,0.549,-0.442,-0.384,-0.229,0.319
29208443,0.496,-0.491,-0.345,-0.228,0.275
29217507,0.441,-0.538,-0.315,-0.207,0.228
29227436,0.439,-0.576,-0.324,-0.181,0.234
29237436,0.448,-0.601,-0.37,-0.146,0.206
29248742,0.561,-0.601,-0.528,-0.088,0.167
29257722,0.637,-0.575,-0.615,-0.058,0.154
29267456,0.647,-0.541,-0.621,-0.047,0.174
29277436,0.617,-0.513,-0.593,-0.021,0.17
29287436,0.562,-0.496,-0.537,-0.0,0.166
29297440,0.455,-0.497,-0.425,0.021,0.161
29307642,0.365,-0.517,-0.319,0.051,0.17
29317483,0.356,-0.538,-0.311,0.072,0.158
29327436,0.635,-0.521,-0.606,0.127,0.14
29337436,1.117,-0.418,-1.097,0.184,0.105
29347436,1.285,-0.262,-1.267,0.182,0.116
29357979,1.732,-0.069,-1.671,0.278,0.361
29367500,2.123,0.174,-1.944,0.565,0.638
29377436,2.212,0.416,-1.974,0.689,0.723
29387437,2.609,0.654,-2.141,0.902,1.188
29397480,2.956,0.917,-2.226,1.346,1.405
29407580,3.112,1.171,-2.376,1.559,1.268
29417686,3.843,1.457,-3.156,1.996,0.907
29427436,4.268,1.798,-3.695,2.026,0.671
29437436,4.166,2.084,-3.674,1.875,0.584
29447436,3.392,2.191,-3.057,1.349,0.583
29457702,2.757,2.099,-2.518,0.845,0.738
29467456,2.676,1.93,-2.438,0.731,0.825
29477436,2.973,1.809,-2.663,0.84,1.021
29487440,3.089,1.746,-2.705,1.201,0.885
29497436,2.89,1.675,-2.486,1.307,0.679
29507586,2.296,1.517,-1.881,1.259,0.384
29517456,1.714,1.251,-1.362,1.03,0.152
29527440,1.469,0.941,-1.154,0.906,0.072
29537436,1.025,0.617,-0.841,0.585,0.035
29547436,0.639,0.267,-0.569,0.273,0.098
29557589,0.511,-0.064,-0.464,0.158,0.144
29567639,0.476,-0.339,-0.418,0.036,0.224
29577436,0.6,-0.539,-0.546,0.06,0.242
29587436,0.655,-0.67,-0.607,0.082,0.23
29597436,0.75,-0.749,-0.71,0.162,0.179
29607436,0.66,-0.805,-0.625,0.176,0.119
29617436,0.585,-0.86,-0.548,0.193,0.065
29627436,0.373,-0.928,-0.287,0.23,-0.062
29637436,0.347,-1.0,0.039,0.264,-0.222
29647436,0.459,-1.038,0.164,0.312,-0.295
29658444,0.908,-0.997,0.612,0.403,-0.537
29667839,0.998,-0.896,0.725,0.436,-0.53
29677464,1.055,-0.794,0.798,0.438,-0.534
29687436,0.99,-0.71,0.794,0.349,-0.476
29697436,0.859,-0.662,0.761,0.212,-0.338
29707436,0.81,-0.639,0.762,0.142,-0.235
29717559,0.734,-0.63,0.73,0.06,-0.047
29727471,0.628,-0.638,0.608,0.095,0.127
29737440,0.548,-0.661,0.498,0.123,0.193
29747436,0.474,-0.69,0.36,0.175,0.254
29757436,0.378,-0.726,0.212,0.222,0.22
29767691,0.382,-0.759,0.212,0.27,0.169
29777595,0.38,-0.778,0.145,0.342,0.08
29787456,0.394,-0.786,0.087,0.382,-0.042
29797436,0.412,-0.782,0.06,0.397,-0.092
29807436,0.384,-0.774,0.044,0.37,-0.094
29817436,0.375,-0.765,0.14,0.341,-0.072
29827559,0.385,-0.752,0.19,0.332,-0.045
29837471,0.42,-0.732,0.23,0.349,0.041
29847440,0.527,-0.694,0.26,0.404,0.218
29857436,0.636,-0.635,0.228,0.46,0.376
29867923,0.827,-0.55,0.264,0.617,0.484
29877579,1.156,-0.422,-0.204,0.916,0.676
29887436,1.686,-0.223,-0.587,1.239,0.982
29897436,3.386,0.184,-2.237,2.161,1.337
29907436,4.133,0.772,-2.556,2.791,1.663
29917676,4.438,1.34,-2.426,3.118,2.022
29927535,4.955,1.862,-1.545,3.967,2.534
29937480,5.426,2.363,-1.344,4.795,2.153
29947436,5.107,2.75,-1.58,4.461,1.919
29957436,3.66,2.831,-1.723,2.887,1.448
29969451,2.752,2.607,-1.78,1.617,1.338
29977515,2.774,2.313,-1.992,1.29,1.435
29987436,3.308,2.129,-2.679,1.011,1.657
29997436,3.381,2.037,-2.839,0.863,1.62
30007436,3.129,1.93,-2.615,0.76,1.54
30017539,2.448,1.727,-1.958,0.584,1.347
30027488,1.914,1.419,-1.509,0.569,1.03
30037766,1.749,1.091,-1.402,0.592,0.861
30047436,1.514,0.783,-1.242,0.61,0.614
30057436,1.325,0.49,-1.046,0.573,0.575
30067551,1.244,0.229,-0.94,0.542,0.606
30077651,1.101,-0.001,-0.733,0.41,0.711
30087447,1.039,-0.201,-0.657,0.168,0.788
30097436,1.101,-0.356,-0.739,0.047,0.815
30107436,1.175,-0.457,-0.897,-0.144,0.746
30117436,1.19,-0.523,-0.942,-0.261,0.679
30127436,1.196,-0.567,-0.984,-0.406,0.545
30137436,1.151,-0.601,-0.932,-0.531,0.418
30147436,1.091,-0.634,-0.869,-0.557,0.354
30157436,0.82,-0.692,-0.695,-0.39,0.192
30167617,0.798,-0.765,-0.43,-0.662,0.122
30177727,0.781,-0.819,-0.281,-0.729,-0.015
30187456,0.803,-0.854,-0.207,-0.771,-0.092
30197436,0.862,-0.866,-0.254,-0.78,-0.264
30207436,0.932,-0.853,-0.318,-0.79,-0.38
30217436,1.004,-0.821,-0.369,-0.832,-0.424
30228006,0.969,-0.785,-0.352,-0.805,-0.409
30237479,0.925,-0.76,-0.316,-0.777,-0.389
30247436,0.777,-0.756,-0.189,-0.723,-0.214
30257436,0.659,-0.777,-0.159,-0.639,-0.032
30267436,0.581,-0.809,-0.153,-0.56,-0.004
30277698,0.541,-0.841,-0.23,-0.476,0.115
30287662,0.55,-0.862,-0.365,-0.363,0.192
30297460,0.61,-0.864,-0.428,-0.333,0.281
30307436,0.835,-0.827,-0.698,-0.247,0.386
30317436,1.16,-0.73,-1.033,-0.099,0.519
30327436,1.267,-0.6,-1.109,-0.022,0.612
30337436,1.991,-0.401,-1.693,0.183,1.032
30347579,2.46,-0.11,-1.835,0.6,1.525
30357436,2.684,0.194,-1.985,0.739,1.649
30367436,3.341,0.527,-2.632,0.86,1.87
30381236,4.737,1.012,-4.03,1.269,2.143
30387492,5.209,1.589,-4.449,1.674,2.131
30397437,4.819,2.034,-3.586,2.611,1.883
30407436,5.097,2.35,-3.905,2.896,1.531
30417667,4.656,2.558,-3.363,2.844,1.51
30427436,3.758,2.549,-2.538,2.314,1.525
30437555,3.129,2.351,-2.083,1.826,1.455
30447479,2.94,2.086,-1.965,1.715,1.356
30457436,2.589,1.804,-1.728,1.616,1.052
30467436,2.167,1.485,-1.396,1.485,0.735
30477593,1.931,1.151,-1.208,1.379,0.606
30487723,1.441,0.802,-0.868,1.081,0.395
30497460,1.015,0.422,-0.638,0.743,0.265
30507436,0.817,0.054,-0.53,0.587,0.205
30517436,0.543,-0.285,-0.369,0.376,0.132
30527436,0.404,-0.592,-0.29,0.273,0.067
30537580,0.334,-0.849,-0.232,0.235,0.049
30547487,0.323,-1.051,-0.195,0.257,0.005
30557436,0.291,-1.204,-0.122,0.26,-0.048
30567436,0.258,-1.32,-0.032,0.253,-0.037
30577436,0.358,-1.392,0.147,0.27,-0.182
30587735,0.53,-1.407,0.303,0.298,-0.317
30597456,0.805,-1.357,0.625,0.364,-0.353
30607436,0.903,-1.265,0.606,0.475,-0.471
30617436,0.969,-1.166,0.556,0.582,-0.54
30627436,0.96,-1.073,0.521,0.582,-0.558
30637559,0.878,-1.003,0.493,0.449,-0.572
30647456,0.754,-0.964,0.49,0.255,-0.514
30657436,0.699,-0.946,0.477,0.192,-0.475
30667571,0.603,-0.941,0.421,0.169,-0.396
30677436,0.547,-0.947,0.361,0.262,-0.316
30687687,0.555,-0.95,0.356,0.334,-0.264
30697460,0.611,-0.937,0.389,0.462,-0.091
30707436,0.693,-0.905,0.404,0.561,0.055
30717436,0.706,-0.861,0.376,0.59,0.088
30728030,0.66,-0.825,0.318,0.576,0.051
30737460,0.614,-0.8,0.223,0.57,-0.055
30747440,0.609,-0.78,0.156,0.586,-0.059
30757436,0.72,-0.747,-0.068,0.716,0.003
30767436,1.259,-0.642,-0.364,1.121,0.443
30777563,1.757,-0.439,-0.704,1.43,0.741
30788533,2.183,-0.175,-0.846,1.876,0.73
30797440,2.518,0.117,-0.836,2.266,0.712
30807436,2.787,0.41,-1.014,2.451,0.854
30817436,4.109,0.812,-1.913,3.305,1.517
30827645,6.0,1.478,-2.893,4.776,2.195
30837483,6.667,2.27,-3.317,5.253,2.42
30847436,6.573,2.931,-3.7,4.767,2.606
30857436,5.027,3.236,-3.089,3.042,2.545
30867436,4.341,3.197,-2.658,2.339,2.512
30877436,3.592,2.98,-2.13,1.502,2.471
30887528,2.934,2.631,-1.799,1.036,2.073
30897715,2.654,2.233,-1.685,0.841,1.87
30907460,2.041,1.808,-1.374,0.519,1.418
30917667,1.464,1.329,-1.023,0.234,1.021
30927437,1.243,0.858,-0.856,0.084,0.897
30937436,0.915,0.425,-0.614,-0.158,0.66
30947559,0.751,0.03,-0.442,-0.359,0.49
30957475,0.697,-0.301,-0.414,-0.41,0.383
30967436,0.56,-0.577,-0.398,-0.32,0.23
30977436,0.615,-0.795,-0.407,-0.456,-0.075
30988847,0.648,-0.949,-0.399,-0.511,0.011
30997739,0.667,-1.054,-0.356,-0.563,-0.021
31007456,0.694,-1.123,-0.331,-0.61,-0.005
31017436,0.701,-1.163,-0.3,-0.634,-0.001
31027436,0.725,-1.182,-0.244,-0.683,-0.0
31037761,0.719,-1.185,-0.176,-0.694,-0.07
31047862,0.697,-1.181,-0.157,-0.667,-0.128
31057479,0.712,-1.169,-0.165,-0.646,-0.25
31067436,0.719,-1.148,-0.163,-0.641,-0.283
31077436,0.774,-1.116,-0.146,-0.681,-0.338
31087436,0.823,-1.071,-0.128,-0.738,-0.341
31097703,0.903,-1.013,-0.146,-0.812,-0.366
31107539,0.917,-0.949,-0.149,-0.826,-0.37
31117448,0.938,-0.888,-0.169,-0.856,-0.344
31127437,0.928,-0.833,-0.149,-0.856,-0.326
31137436,0.79,-0.8,-0.127,-0.756,-0.188
31147436,0.662,-0.798,-0.096,-0.651,-0.071
