timestamp_us,raw_mag,filtered,ax,ay,az
7817676,1.027,0.319,-0.054,0.99,0.268
7827625,1.029,0.474,-0.046,0.993,0.265
7837453,1.03,0.592,-0.051,0.991,0.274
7847433,1.021,0.677,-0.061,0.983,0.271
7857433,1.02,0.737,-0.059,0.979,0.278
7867794,1.02,0.777,-0.067,0.981,0.271
7877670,1.03,0.804,-0.055,0.993,0.266
7887532,1.034,0.819,-0.059,0.996,0.272
7897432,1.02,0.824,-0.062,0.982,0.267
7907484,1.031,0.82,-0.056,0.991,0.277
7917429,1.035,0.813,-0.051,0.995,0.282
7927433,1.024,0.8,-0.06,0.988,0.262
7937718,1.025,0.782,-0.06,0.987,0.269
7947436,1.016,0.762,-0.069,0.977,0.27
7957429,1.019,0.739,-0.063,0.981,0.268
7967684,1.027,0.717,-0.063,0.987,0.276
7977716,1.01,0.693,-0.059,0.972,0.266
7987583,1.022,0.668,-0.07,0.985,0.264
7997433,1.025,0.645,-0.058,0.989,0.263
8007433,1.019,0.622,-0.058,0.98,0.275
8017433,1.021,0.599,-0.056,0.985,0.262
8027433,1.021,0.576,-0.068,0.982,0.271
8037963,1.02,0.554,-0.078,0.98,0.273
8047440,1.029,0.534,-0.066,0.991,0.271
8057433,1.027,0.514,-0.073,0.99,0.261
8070802,1.031,0.495,-0.068,0.993,0.271
8077453,1.044,0.478,-0.057,1.004,0.279
8087564,1.033,0.462,-0.064,0.996,0.266
8097473,1.034,0.444,-0.061,0.998,0.262
8107433,1.021,0.426,-0.067,0.983,0.268
8117433,1.033,0.408,-0.053,0.997,0.264
8127433,1.018,0.39,-0.048,0.978,0.277
8137548,1.026,0.373,-0.048,0.989,0.267
8147480,1.024,0.357,-0.047,0.989,0.259
8157437,1.016,0.341,-0.057,0.979,0.269
8167774,1.015,0.325,-0.049,0.978,0.268
8177703,1.018,0.31,-0.056,0.981,0.265
8187461,1.033,0.298,-0.05,1.0,0.253
8197433,1.037,0.288,-0.056,1.002,0.261
8207433,1.029,0.278,-0.034,0.993,0.266
8217433,1.021,0.266,-0.036,0.984,0.27
8227556,1.026,0.255,-0.03,0.996,0.247
8237468,1.022,0.244,-0.021,0.988,0.26
8247436,1.02,0.233,-0.031,0.987,0.257
8257433,0.997,0.219,-0.024,0.966,0.247
8267433,0.988,0.204,-0.021,0.957,0.245
8277937,0.994,0.19,-0.024,0.962,0.247
8287457,0.988,0.177,-0.039,0.954,0.253
8297445,0.988,0.165,-0.048,0.958,0.233
8307433,0.991,0.155,-0.046,0.961,0.237
8317668,0.991,0.147,-0.041,0.959,0.245
8327578,1.003,0.14,-0.028,0.971,0.249
8337453,1.006,0.136,-0.028,0.973,0.253
8347433,1.008,0.132,-0.018,0.977,0.248
8357433,1.014,0.128,-0.032,0.983,0.246
8367433,1.027,0.127,-0.037,0.993,0.258
8377872,1.035,0.127,-0.042,1.002,0.254
8387808,1.042,0.128,-0.056,1.009,0.253
8397578,1.039,0.128,-0.055,1.008,0.244
8407433,1.047,0.128,-0.054,1.012,0.263
8417433,1.037,0.126,-0.037,1.002,0.265
8427433,1.026,0.122,-0.032,0.992,0.261
8437433,1.024,0.116,-0.026,0.987,0.273
8447580,0.978,0.105,-0.014,0.942,0.26
8457441,0.948,0.087,-0.005,0.914,0.252
8467433,0.934,0.068,-0.009,0.902,0.242
8479359,0.913,0.048,-0.026,0.879,0.246
8487445,0.916,0.031,-0.034,0.881,0.247
8498037,0.893,0.014,-0.064,0.851,0.265
8507465,0.871,-0.003,-0.05,0.826,0.274
8517445,0.847,-0.022,-0.048,0.798,0.28
8527433,0.853,-0.038,-0.031,0.781,0.341
8537433,0.868,-0.048,-0.007,0.78,0.38
8547433,0.896,-0.051,-0.01,0.805,0.394
8557574,0.952,-0.043,0.0,0.854,0.42
8567568,1.071,-0.017,0.031,0.975,0.443
8577532,1.105,0.02,0.03,1.015,0.437
8587640,1.193,0.063,-0.019,1.102,0.457
8597610,1.259,0.112,-0.184,1.116,0.553
8607457,1.297,0.162,-0.308,1.114,0.589
8617433,1.408,0.216,-0.571,1.128,0.618
8627433,1.468,0.275,-0.716,1.115,0.633
8637433,1.463,0.325,-0.746,1.093,0.625
8647556,1.446,0.358,-0.707,1.106,0.606
8657460,1.456,0.381,-0.626,1.172,0.594
8667436,1.447,0.395,-0.589,1.182,0.591
8677433,1.416,0.399,-0.479,1.203,0.572
8687724,1.385,0.392,-0.401,1.165,0.634
8697457,1.379,0.379,-0.353,1.161,0.656
8707433,1.35,0.362,-0.276,1.146,0.659
8717433,1.315,0.339,-0.247,1.108,0.664
8727433,1.305,0.313,-0.236,1.097,0.667
8737754,1.284,0.287,-0.234,1.089,0.637
8747468,1.228,0.256,-0.219,1.062,0.577
8757436,1.217,0.222,-0.222,1.064,0.547
8767433,1.183,0.19,-0.234,1.037,0.52
8777433,1.18,0.159,-0.264,1.036,0.5
8788621,1.192,0.134,-0.299,1.032,0.517
8797544,1.163,0.112,-0.333,1.004,0.484
8807570,1.141,0.089,-0.377,0.972,0.462
8817809,1.133,0.066,-0.402,0.958,0.451
8827457,1.097,0.043,-0.396,0.933,0.418
8837441,1.051,0.016,-0.382,0.894,0.4
8847433,1.032,-0.012,-0.379,0.874,0.398
8857433,1.011,-0.039,-0.375,0.86,0.375
8867927,0.98,-0.065,-0.364,0.829,0.376
8877449,0.973,-0.089,-0.35,0.826,0.375
8890393,0.927,-0.113,-0.337,0.79,0.349
8897520,0.903,-0.138,-0.297,0.779,0.346
8907433,0.889,-0.161,-0.295,0.772,0.328
8917433,0.861,-0.182,-0.277,0.749,0.322
8927433,0.858,-0.201,-0.253,0.749,0.334
8937433,0.839,-0.216,-0.23,0.719,0.367
8947793,0.834,-0.229,-0.218,0.699,0.399
8957464,0.806,-0.241,-0.233,0.664,0.394
8967433,0.809,-0.251,-0.234,0.666,0.396
8977433,0.813,-0.256,-0.266,0.651,0.409
8987513,0.831,-0.255,-0.291,0.671,0.394
8998259,0.865,-0.247,-0.302,0.704,0.402
9007489,0.863,-0.235,-0.302,0.712,0.384
9017433,0.848,-0.226,-0.298,0.698,0.378
9027433,0.837,-0.22,-0.301,0.682,0.38
9038470,0.835,-0.215,-0.297,0.673,0.395
9047437,0.838,-0.209,-0.296,0.672,0.404
9057587,0.842,-0.202,-0.294,0.664,0.426
9067593,0.839,-0.195,-0.289,0.652,0.44
9077433,0.839,-0.188,-0.283,0.665,0.428
9088768,0.829,-0.183,-0.272,0.655,0.428
9097727,0.835,-0.178,-0.281,0.673,0.407
9107457,0.841,-0.171,-0.258,0.694,0.399
9117433,0.916,-0.155,-0.27,0.787,0.385
9127433,0.982,-0.126,-0.259,0.882,0.346
9137433,1.012,-0.091,-0.259,0.917,0.341
9147863,1.033,-0.058,-0.25,0.952,0.314
9157457,1.056,-0.027,-0.223,0.984,0.312
9167433,1.057,0.0,-0.217,0.986,0.312
9177437,1.083,0.024,-0.213,1.014,0.317
9187433,1.12,0.05,-0.19,1.045,0.356
9197676,1.125,0.074,-0.182,1.044,0.376
9207457,1.133,0.093,-0.161,1.055,0.38
9217433,1.106,0.106,-0.131,1.027,0.389
9227433,1.076,0.108,-0.125,0.999,0.378
9237433,1.001,0.097,-0.11,0.924,0.368
9247582,0.928,0.071,-0.089,0.855,0.349
9257468,0.919,0.042,-0.069,0.851,0.34
9267436,0.891,0.014,-0.07,0.835,0.302
9277433,0.928,-0.007,-0.046,0.884,0.278
9287433,0.968,-0.014,-0.055,0.927,0.276
9298937,1.06,-0.004,-0.041,1.032,0.238
9307587,1.153,0.024,-0.045,1.128,0.235
9317683,1.217,0.063,-0.072,1.191,0.239
9327433,1.306,0.11,-0.092,1.276,0.262
9337433,1.409,0.167,-0.109,1.379,0.267
9347433,1.461,0.227,-0.108,1.433,0.264
9357563,1.494,0.282,-0.109,1.464,0.274
9367465,1.445,0.32,-0.072,1.418,0.269
9377433,1.391,0.336,-0.062,1.361,0.278
9387469,1.269,0.326,-0.075,1.238,0.267
9397504,1.171,0.29,-0.095,1.138,0.26
9407684,1.141,0.246,-0.097,1.107,0.259
9417464,1.076,0.2,-0.117,1.043,0.235
9427433,1.023,0.149,-0.119,0.981,0.263
9437433,1.014,0.101,-0.124,0.97,0.269
9447433,1.002,0.061,-0.127,0.958,0.264
9457433,1.001,0.027,-0.143,0.951,0.278
9467433,0.986,-0.0,-0.141,0.938,0.271
9477476,0.947,-0.028,-0.14,0.899,0.263
9487433,0.904,-0.058,-0.145,0.859,0.242
9498929,0.876,-0.089,-0.152,0.83,0.233
9507707,0.868,-0.117,-0.136,0.826,0.229
9517457,0.882,-0.136,-0.149,0.832,0.251
9527433,0.866,-0.151,-0.151,0.82,0.234
9537433,0.904,-0.158,-0.13,0.857,0.254
9547433,0.919,-0.157,-0.11,0.867,0.284
9557574,0.923,-0.152,-0.093,0.873,0.285
9567582,0.916,-0.148,-0.058,0.858,0.316
9577433,0.905,-0.145,-0.039,0.843,0.326
9587433,0.906,-0.143,-0.034,0.844,0.327
9597433,0.92,-0.139,-0.042,0.868,0.302
9607687,0.926,-0.132,-0.075,0.877,0.287
9617457,0.928,-0.125,-0.08,0.88,0.285
9627433,0.956,-0.115,-0.099,0.909,0.278
9637433,0.98,-0.101,-0.111,0.932,0.284
9647433,0.999,-0.084,-0.125,0.956,0.262
9657591,1.036,-0.064,-0.136,0.992,0.268
9667476,1.086,-0.038,-0.151,1.043,0.263
9677433,1.107,-0.01,-0.158,1.061,0.275
9687433,1.152,0.019,-0.174,1.104,0.275
9697433,1.17,0.049,-0.175,1.12,0.29
9709650,1.176,0.074,-0.181,1.126,0.287
9717504,1.184,0.095,-0.188,1.136,0.276
9727473,1.231,0.117,-0.197,1.185,0.269
9737433,1.281,0.143,-0.202,1.236,0.27
9747433,1.416,0.183,-0.233,1.376,0.235
9757433,1.552,0.243,-0.247,1.513,0.241
9767573,1.597,0.308,-0.236,1.562,0.239
9777461,1.639,0.366,-0.2,1.603,0.279
9787433,1.571,0.405,-0.183,1.532,0.295
9797433,1.508,0.418,-0.167,1.466,0.309
9807512,1.363,0.4,-0.171,1.312,0.33
9818077,1.221,0.352,-0.177,1.158,0.347
9827474,1.167,0.289,-0.176,1.104,0.336
9837556,1.032,0.218,-0.172,0.965,0.324
9847469,0.915,0.132,-0.134,0.855,0.298
9857441,0.87,0.046,-0.118,0.815,0.279
9867437,0.845,-0.029,-0.107,0.796,0.264
9877433,0.847,-0.089,-0.107,0.798,0.262
9887512,0.888,-0.13,-0.123,0.848,0.231
9897507,0.958,-0.149,-0.151,0.92,0.22
9908516,1.04,-0.145,-0.163,1.01,0.186
9917703,1.057,-0.13,-0.155,1.032,0.165
9927461,1.121,-0.108,-0.168,1.097,0.158
9937433,1.148,-0.08,-0.179,1.123,0.154
9947433,1.193,-0.049,-0.17,1.17,0.157
9957433,1.213,-0.018,-0.138,1.195,0.157
9967556,1.222,0.01,-0.123,1.202,0.184
9977468,1.2,0.03,-0.089,1.181,0.192
9987437,1.161,0.038,-0.056,1.136,0.231
9997433,1.14,0.037,-0.04,1.115,0.236
10007433,1.116,0.032,-0.024,1.088,0.247
10018057,1.095,0.022,-0.011,1.065,0.253
10027457,1.084,0.011,0.01,1.046,0.282
10037761,1.021,-0.006,0.034,0.979,0.287
10047433,0.968,-0.033,0.046,0.932,0.258
10057433,0.951,-0.061,0.046,0.915,0.255
10067574,0.907,-0.089,0.014,0.875,0.24
10077576,0.881,-0.118,-0.03,0.859,0.193
10087437,0.89,-0.141,-0.062,0.868,0.189
10097477,0.907,-0.155,-0.099,0.884,0.173
10107433,0.903,-0.164,-0.138,0.876,0.168
10118684,0.901,-0.169,-0.165,0.871,0.16
10127578,0.907,-0.172,-0.181,0.873,0.169
10137433,0.896,-0.173,-0.2,0.855,0.176
10147433,0.899,-0.174,-0.188,0.863,0.167
10157433,0.903,-0.172,-0.159,0.87,0.183
10167433,0.913,-0.168,-0.142,0.881,0.193
10177552,0.909,-0.163,-0.116,0.885,0.173
10187460,0.928,-0.155,-0.087,0.903,0.193
10197433,0.91,-0.149,-0.076,0.889,0.183
10207433,0.916,-0.143,-0.072,0.893,0.19
10219339,0.9,-0.139,-0.087,0.876,0.186
10227667,0.913,-0.135,-0.11,0.883,0.204
10237425,0.922,-0.129,-0.109,0.892,0.206
10247433,0.947,-0.119,-0.14,0.914,0.208
10257421,0.968,-0.105,-0.173,0.93,0.205
10267433,0.973,-0.091,-0.182,0.932,0.212
10277500,0.97,-0.079,-0.18,0.93,0.207
10287512,0.973,-0.069,-0.196,0.929,0.214
10297432,0.99,-0.058,-0.213,0.935,0.244
10307433,1.01,-0.045,-0.185,0.946,0.303
10318362,1.066,-0.026,-0.147,0.978,0.397
10327719,1.092,-0.002,-0.133,1.004,0.408
10337457,1.118,0.022,-0.099,1.037,0.408
10347433,1.105,0.042,-0.089,1.051,0.332
10357433,1.11,0.057,-0.097,1.07,0.278
10367433,1.104,0.068,-0.153,1.076,0.197
10377556,1.125,0.077,-0.2,1.098,0.142
10387453,1.159,0.09,-0.209,1.131,0.142
10397433,1.197,0.107,-0.164,1.173,0.175
10407432,1.222,0.127,-0.097,1.194,0.244
10417433,1.238,0.146,-0.075,1.206,0.269
10427680,1.184,0.155,-0.035,1.136,0.331
10437456,1.065,0.141,-0.051,0.989,0.39
10447433,1.007,0.11,-0.068,0.927,0.388
10457437,0.906,0.067,-0.113,0.799,0.413
10467433,0.818,0.012,-0.133,0.715,0.374
10477573,0.787,-0.044,-0.14,0.685,0.363
10487457,0.811,-0.088,-0.12,0.727,0.341
10497433,0.905,-0.109,-0.11,0.845,0.304
10507433,0.968,-0.106,-0.113,0.918,0.284
10517796,1.068,-0.085,-0.103,1.038,0.229
10527847,1.144,-0.048,-0.108,1.118,0.219
10537437,1.157,-0.009,-0.104,1.128,0.232
10547433,1.16,0.023,-0.09,1.128,0.254
10557433,1.143,0.046,-0.096,1.103,0.284
10567699,1.119,0.059,-0.086,1.077,0.292
10577453,1.082,0.062,-0.104,1.025,0.328
10587433,1.056,0.057,-0.098,1.005,0.309
10597433,1.049,0.049,-0.099,0.999,0.306
10607433,1.037,0.04,-0.104,0.987,0.301
10617544,1.041,0.031,-0.104,0.992,0.299
10628751,1.024,0.023,-0.106,0.973,0.301
10637468,1.016,0.014,-0.113,0.972,0.274
10647433,1.0,0.004,-0.117,0.957,0.266
10657911,1.004,-0.005,-0.128,0.956,0.28
10667457,0.999,-0.012,-0.149,0.944,0.292
10677433,0.994,-0.019,-0.157,0.939,0.283
10687433,0.983,-0.025,-0.179,0.923,0.286
10697433,0.981,-0.032,-0.145,0.926,0.289
10707560,0.975,-0.038,-0.146,0.922,0.281
10717457,0.976,-0.042,-0.132,0.927,0.277
10727472,0.995,-0.043,-0.111,0.943,0.295
10737605,0.997,-0.041,-0.094,0.951,0.285
10747445,0.984,-0.041,-0.1,0.936,0.287
10757556,0.97,-0.043,-0.106,0.922,0.281
10767433,0.981,-0.045,-0.111,0.932,0.286
10777433,1.008,-0.042,-0.108,0.962,0.282
10787433,1.018,-0.035,-0.121,0.973,0.274
10797559,1.042,-0.025,-0.121,0.991,0.3
10807453,1.039,-0.015,-0.128,0.988,0.295
10817656,1.045,-0.007,-0.131,0.993,0.299
10827433,1.071,0.003,-0.123,1.021,0.299
10837643,1.103,0.017,-0.128,1.059,0.28
10847591,1.131,0.035,-0.13,1.085,0.292
10857461,1.133,0.052,-0.125,1.092,0.274
10867433,1.158,0.067,-0.127,1.116,0.285
10877433,1.201,0.087,-0.102,1.159,0.297
10887433,1.213,0.107,-0.103,1.173,0.292
10897552,1.22,0.124,-0.091,1.187,0.267
10907472,1.192,0.134,-0.117,1.155,0.271
10917437,1.163,0.134,-0.146,1.125,0.258
10927433,1.201,0.134,-0.184,1.161,0.246
10938732,1.315,0.15,-0.226,1.271,0.248
10947484,1.386,0.182,-0.232,1.343,0.254
10957433,1.496,0.226,-0.248,1.45,0.275
10967433,1.51,0.272,-0.225,1.459,0.317
10977433,1.472,0.303,-0.206,1.42,0.328
10987433,1.361,0.308,-0.163,1.31,0.33
10997552,1.267,0.286,-0.124,1.215,0.337
11007453,1.223,0.251,-0.124,1.171,0.332
11017433,1.124,0.207,-0.1,1.075,0.312
11027476,1.029,0.148,-0.099,0.979,0.301
11040925,0.915,0.079,-0.1,0.869,0.269
11047489,0.883,0.008,-0.105,0.835,0.268
11057433,0.861,-0.054,-0.096,0.819,0.247
11067568,0.868,-0.102,-0.111,0.825,0.248
11077433,0.898,-0.135,-0.13,0.856,0.235
11087433,0.955,-0.15,-0.166,0.91,0.237
11097827,0.989,-0.15,-0.177,0.944,0.236
11107496,1.046,-0.139,-0.19,1.002,0.232
11117433,1.121,-0.114,-0.225,1.063,0.274
11127433,1.184,-0.078,-0.252,1.121,0.287
11137517,1.251,-0.035,-0.277,1.183,0.298
11147699,1.251,0.006,-0.224,1.198,0.284
11157461,1.234,0.035,-0.19,1.187,0.282
11167433,1.186,0.051,-0.167,1.146,0.256
11177433,1.148,0.053,-0.165,1.106,0.257
11187433,1.134,0.048,-0.179,1.094,0.236
11197556,1.109,0.04,-0.204,1.065,0.235
11207468,1.086,0.028,-0.199,1.045,0.215
11217437,1.076,0.014,-0.194,1.036,0.218
11227433,1.045,-0.001,-0.165,1.01,0.214
11237433,1.005,-0.02,-0.15,0.968,0.227
11247715,0.981,-0.043,-0.153,0.942,0.227
11257457,0.949,-0.066,-0.152,0.908,0.23
11267433,0.925,-0.09,-0.147,0.891,0.201
11277433,0.919,-0.111,-0.155,0.881,0.211
11287433,0.895,-0.13,-0.156,0.856,0.206
11298100,0.874,-0.148,-0.146,0.838,0.201
11307472,0.869,-0.164,-0.145,0.833,0.201
11317672,0.839,-0.18,-0.147,0.802,0.196
11327433,0.833,-0.194,-0.15,0.792,0.21
11337433,0.835,-0.204,-0.132,0.797,0.209
11348564,0.82,-0.212,-0.145,0.779,0.21
11357473,0.83,-0.217,-0.125,0.793,0.211
11367433,0.814,-0.219,-0.126,0.777,0.207
11377433,0.818,-0.221,-0.114,0.775,0.236
11387433,0.828,-0.219,-0.111,0.784,0.24
11397433,0.828,-0.215,-0.101,0.788,0.234
11407556,0.842,-0.208,-0.112,0.802,0.23
11417441,0.884,-0.195,-0.103,0.848,0.225
11427433,0.908,-0.176,-0.101,0.872,0.232
11437433,0.924,-0.155,-0.101,0.89,0.228
11448617,0.941,-0.134,-0.087,0.91,0.226
11457465,0.95,-0.114,-0.081,0.921,0.219
11467433,0.981,-0.093,-0.066,0.948,0.243
11477433,0.992,-0.071,-0.068,0.956,0.254
11487433,0.996,-0.052,-0.056,0.959,0.261
11497564,0.995,-0.036,-0.034,0.957,0.27
11507461,1.02,-0.021,-0.021,0.986,0.259
11517433,1.055,-0.003,-0.014,1.027,0.239
11527433,1.161,0.028,-0.032,1.141,0.217
11537433,1.266,0.075,-0.052,1.249,0.197
11547598,1.315,0.128,-0.054,1.301,0.184
11557624,1.364,0.179,-0.055,1.348,0.201
11567589,1.374,0.224,-0.051,1.352,0.24
11577437,1.386,0.26,-0.046,1.353,0.298
11587818,1.377,0.285,0.003,1.333,0.349
11597586,1.319,0.296,0.01,1.27,0.355
11607437,1.245,0.286,0.008,1.198,0.337
11617433,1.079,0.25,-0.008,1.032,0.315
11627433,0.951,0.187,-0.002,0.895,0.324
11637535,0.892,0.116,-0.007,0.841,0.297
11647988,0.85,0.048,-0.032,0.787,0.32
11657628,0.87,-0.007,-0.078,0.806,0.318
11667441,0.901,-0.045,-0.095,0.843,0.302
11677433,0.966,-0.062,-0.112,0.927,0.25
11687574,1.021,-0.062,-0.118,0.991,0.214
11697476,1.031,-0.054,-0.135,1.001,0.205
11707437,1.075,-0.041,-0.16,1.044,0.201
11717433,1.132,-0.02,-0.195,1.096,0.206
11727437,1.158,0.006,-0.213,1.116,0.22
11737433,1.192,0.033,-0.16,1.15,0.269
11747433,1.205,0.059,-0.119,1.161,0.301
11758668,1.199,0.079,-0.032,1.154,0.321
11767513,1.162,0.09,0.014,1.119,0.314
11777433,1.116,0.088,0.018,1.075,0.299
11787433,1.046,0.073,0.002,1.003,0.298
11797433,0.987,0.046,-0.002,0.946,0.282
11807433,0.99,0.018,-0.006,0.954,0.266
11817834,0.993,-0.002,-0.017,0.95,0.291
11827453,0.978,-0.02,-0.052,0.934,0.286
11837433,0.982,-0.034,-0.078,0.931,0.303
11847433,0.964,-0.047,-0.09,0.911,0.3
11859740,0.943,-0.061,-0.115,0.886,0.302
11867721,0.94,-0.074,-0.142,0.871,0.323
11877579,0.937,-0.084,-0.16,0.864,0.327
11887477,0.933,-0.092,-0.173,0.858,0.324
11897433,0.933,-0.098,-0.192,0.851,0.331
11907433,0.936,-0.101,-0.162,0.856,0.341
11917433,0.94,-0.102,-0.163,0.87,0.316
11927555,0.961,-0.1,-0.165,0.893,0.314
11937480,0.982,-0.092,-0.15,0.913,0.328
11947433,1.003,-0.081,-0.126,0.941,0.324
11957529,1.022,-0.067,-0.12,0.961,0.326
11967696,1.074,-0.048,-0.109,1.014,0.336
11977453,1.083,-0.025,-0.12,1.025,0.329
11987433,1.1,-0.005,-0.126,1.042,0.329
11997433,1.093,0.012,-0.141,1.031,0.335
12007433,1.103,0.025,-0.153,1.035,0.349
12017548,1.115,0.038,-0.157,1.046,0.353
12027472,1.134,0.051,-0.16,1.074,0.327
12037766,1.17,0.067,-0.17,1.104,0.346
12047433,1.18,0.084,-0.148,1.122,0.336
12058946,1.177,0.097,-0.137,1.117,0.345
12068087,1.15,0.103,-0.126,1.09,0.343
12077461,1.14,0.103,-0.122,1.081,0.341
12087433,1.158,0.103,-0.176,1.103,0.307
12097433,1.282,0.118,-0.233,1.231,0.268
12107433,1.389,0.154,-0.267,1.339,0.255
12117552,1.535,0.21,-0.264,1.494,0.235
12127457,1.597,0.275,-0.212,1.566,0.229
12137433,1.592,0.329,-0.196,1.561,0.24
12147433,1.5,0.358,-0.181,1.469,0.248
12157433,1.404,0.357,-0.198,1.37,0.239
12167683,1.376,0.339,-0.209,1.335,0.256
12177461,1.291,0.309,-0.193,1.259,0.212
12187433,1.18,0.262,-0.177,1.149,0.201
12197433,1.119,0.204,-0.17,1.09,0.185
12207433,1.007,0.138,-0.125,0.987,0.152
12217591,0.91,0.062,-0.112,0.892,0.141
12227433,0.893,-0.01,-0.125,0.875,0.123
12237433,0.92,-0.064,-0.128,0.906,0.088
12247433,0.971,-0.098,-0.159,0.955,0.08
12257560,0.995,-0.114,-0.178,0.977,0.07
12267631,1.088,-0.113,-0.232,1.062,0.048
12277441,1.103,-0.099,-0.298,1.062,0.039
12287433,1.105,-0.085,-0.317,1.058,0.035
12297433,1.063,-0.079,-0.308,1.014,0.085
12308534,1.014,-0.083,-0.295,0.965,0.095
12317765,1.005,-0.092,-0.288,0.955,0.127
12327437,0.967,-0.104,-0.26,0.919,0.149
12337433,0.968,-0.116,-0.266,0.913,0.183
12347433,0.984,-0.123,-0.263,0.924,0.212
12357433,1.028,-0.121,-0.271,0.967,0.218
12367533,1.029,-0.113,-0.25,0.979,0.196
12377696,1.004,-0.109,-0.219,0.962,0.187
12387433,0.978,-0.11,-0.173,0.95,0.157
12397433,0.959,-0.115,-0.167,0.931,0.16
12407433,0.949,-0.122,-0.175,0.918,0.16
12417433,0.936,-0.129,-0.197,0.903,0.148
12427504,0.932,-0.135,-0.251,0.886,0.143
12437516,0.921,-0.14,-0.254,0.874,0.141
12447437,0.911,-0.145,-0.263,0.859,0.151
12457433,0.908,-0.15,-0.22,0.865,0.164
12468568,0.905,-0.153,-0.198,0.859,0.202
12477695,0.893,-0.155,-0.168,0.852,0.21
12487469,0.9,-0.157,-0.168,0.86,0.208
12497433,0.884,-0.158,-0.155,0.844,0.21
12507433,0.875,-0.16,-0.178,0.83,0.212
12517433,0.852,-0.164,-0.171,0.804,0.225
12527552,0.844,-0.169,-0.168,0.797,0.223
12537472,0.842,-0.173,-0.151,0.801,0.211
12547437,0.842,-0.175,-0.156,0.804,0.194
12557433,0.839,-0.176,-0.161,0.799,0.199
12567568,0.872,-0.171,-0.167,0.834,0.191
12577918,0.929,-0.156,-0.181,0.888,0.204
12587457,0.95,-0.135,-0.19,0.908,0.202
12597433,0.999,-0.109,-0.193,0.956,0.216
12607433,1.055,-0.077,-0.182,1.01,0.246
12617433,1.061,-0.044,-0.172,1.019,0.241
12627745,1.102,-0.013,-0.16,1.06,0.258
12637574,1.118,0.018,-0.158,1.076,0.26
12647433,1.109,0.042,-0.15,1.069,0.254
12657433,1.08,0.057,-0.125,1.048,0.231
12667433,1.064,0.062,-0.116,1.038,0.201
12677628,1.027,0.06,-0.103,1.006,0.182
12687587,1.113,0.063,-0.098,1.096,0.169
12697480,1.165,0.081,-0.104,1.151,0.146
12707437,1.312,0.116,-0.107,1.297,0.167
12717433,1.412,0.17,-0.083,1.393,0.218
12727433,1.422,0.224,-0.04,1.404,0.224
12737433,1.388,0.26,0.046,1.364,0.256
12747433,1.265,0.269,0.089,1.236,0.254
12757433,1.194,0.252,0.077,1.164,0.256
12767433,1.065,0.214,0.019,1.033,0.258
12779318,0.953,0.156,-0.02,0.918,0.257
12787679,0.92,0.094,-0.038,0.88,0.265
12797433,0.81,0.029,-0.026,0.761,0.274
12807433,0.765,-0.04,-0.026,0.714,0.275
12817672,0.771,-0.097,-0.041,0.726,0.257
12827433,0.855,-0.13,-0.1,0.816,0.237
12837496,0.998,-0.129,-0.152,0.968,0.189
12847523,1.061,-0.105,-0.16,1.035,0.17
12857441,1.155,-0.067,-0.144,1.137,0.146
12867433,1.139,-0.029,-0.081,1.126,0.149
12878165,1.143,-0.0,-0.065,1.125,0.189
12887695,1.12,0.02,-0.075,1.102,0.19
12897783,1.093,0.03,-0.063,1.071,0.21
12907445,1.09,0.034,-0.061,1.062,0.238
12917433,1.05,0.032,-0.062,1.019,0.246
12927433,1.014,0.021,-0.061,0.977,0.267
12938314,1.005,0.008,-0.057,0.97,0.257
12947472,1.004,-0.003,-0.047,0.968,0.261
12957437,0.995,-0.013,-0.068,0.961,0.25
12967433,0.988,-0.023,-0.08,0.955,0.242
12977433,0.963,-0.033,-0.113,0.929,0.226
12987723,0.951,-0.045,-0.151,0.915,0.213
12997457,0.951,-0.056,-0.16,0.911,0.219
13007433,0.954,-0.063,-0.178,0.911,0.221
13017433,0.983,-0.065,-0.189,0.944,0.198
13027433,0.993,-0.061,-0.193,0.952,0.205
13038582,0.992,-0.057,-0.187,0.955,0.195
13047472,0.982,-0.054,-0.168,0.945,0.208
13057437,0.973,-0.054,-0.179,0.932,0.215
13067552,0.959,-0.056,-0.151,0.916,0.241
13077433,0.972,-0.057,-0.106,0.926,0.274
13088903,0.979,-0.055,-0.082,0.937,0.272
13097525,0.972,-0.054,-0.097,0.936,0.244
13107433,0.988,-0.051,-0.112,0.954,0.231
13117433,0.995,-0.046,-0.14,0.957,0.235
13127433,1.009,-0.039,-0.181,0.97,0.212
13137433,1.057,-0.026,-0.2,1.009,0.241
13147528,1.067,-0.01,-0.216,1.015,0.25
13157477,1.084,0.006,-0.237,1.031,0.236
13167433,1.099,0.022,-0.244,1.042,0.253
13177433,1.089,0.035,-0.237,1.033,0.252
13189363,1.112,0.046,-0.211,1.061,0.258
13197484,1.136,0.059,-0.153,1.097,0.252
13207433,1.133,0.071,-0.106,1.097,0.261
13217433,1.137,0.08,-0.054,1.102,0.273
13227433,1.114,0.085,-0.053,1.066,0.319
13237433,1.104,0.084,-0.083,1.055,0.314
13247815,1.152,0.086,-0.178,1.095,0.31
13257488,1.316,0.112,-0.288,1.242,0.325
13267433,1.448,0.164,-0.333,1.372,0.322
13277433,1.652,0.24,-0.394,1.566,0.35
13287781,1.706,0.327,-0.358,1.631,0.35
13297695,1.67,0.393,-0.271,1.606,0.367
13307457,1.533,0.422,-0.16,1.472,0.395
13317667,1.422,0.414,-0.192,1.359,0.37
13327433,1.388,0.387,-0.248,1.326,0.326
13337433,1.356,0.357,-0.264,1.301,0.277
13347734,1.276,0.317,-0.229,1.231,0.243
13357468,1.198,0.267,-0.161,1.167,0.218
13367436,1.082,0.204,-0.067,1.06,0.206
13377433,1.053,0.137,-0.05,1.033,0.201
13387433,1.054,0.081,-0.061,1.034,0.192
13397724,1.09,0.04,-0.169,1.066,0.15
13407457,1.119,0.016,-0.283,1.078,0.108
13417433,1.098,-0.001,-0.323,1.048,0.051
13427433,1.098,-0.018,-0.378,1.03,0.014
13437433,1.111,-0.029,-0.317,1.064,0.015
13448279,1.136,-0.033,-0.213,1.113,0.081
13457469,1.067,-0.04,-0.088,1.061,0.08
13467437,0.984,-0.063,-0.18,0.964,0.086
13477433,0.976,-0.091,-0.262,0.938,0.075
13487480,1.001,-0.109,-0.36,0.932,0.067
13498164,1.033,-0.116,-0.365,0.965,0.046
13507564,1.06,-0.114,-0.34,1.003,0.042
13517433,1.035,-0.112,-0.237,1.006,0.053
13527433,0.98,-0.118,-0.181,0.961,0.06
13537433,0.971,-0.129,-0.151,0.957,0.069
13547433,0.95,-0.14,-0.125,0.938,0.08
13557555,0.947,-0.15,-0.182,0.926,0.082
13567587,0.96,-0.155,-0.2,0.936,0.084
13577433,0.954,-0.157,-0.257,0.914,0.092
13587433,0.954,-0.158,-0.297,0.902,0.093
13599777,0.926,-0.161,-0.271,0.879,0.104
13607564,0.907,-0.167,-0.267,0.861,0.102
13617453,0.89,-0.175,-0.263,0.843,0.111
13627433,0.876,-0.183,-0.298,0.817,0.106
13637433,0.857,-0.191,-0.312,0.792,0.095
13647433,0.846,-0.199,-0.313,0.778,0.114
13657544,0.841,-0.206,-0.295,0.781,0.106
13667472,0.854,-0.209,-0.276,0.801,0.107
13677437,0.855,-0.207,-0.28,0.798,0.125
13687433,0.852,-0.205,-0.273,0.798,0.123
13697532,0.849,-0.202,-0.27,0.794,0.131
13707680,0.824,-0.202,-0.262,0.772,0.118
13717805,0.834,-0.201,-0.265,0.779,0.137
13727468,0.861,-0.195,-0.239,0.815,0.144
13737433,0.888,-0.183,-0.237,0.844,0.145
13747433,0.93,-0.164,-0.22,0.894,0.137
13757433,0.968,-0.139,-0.189,0.938,0.145
13767560,0.988,-0.113,-0.182,0.96,0.146
13777472,0.975,-0.09,-0.176,0.945,0.166
13787433,0.963,-0.075,-0.159,0.935,0.167
13797433,0.953,-0.065,-0.153,0.925,0.173
13807836,0.949,-0.058,-0.146,0.918,0.191
13817829,0.973,-0.05,-0.118,0.94,0.221
13827469,0.986,-0.039,-0.109,0.949,0.243
13837433,1.085,-0.018,-0.084,1.051,0.254
13847433,1.242,0.027,-0.066,1.217,0.238
13857433,1.324,0.089,-0.082,1.303,0.225
13867556,1.473,0.162,-0.101,1.458,0.179
13877472,1.53,0.24,-0.121,1.518,0.146
13887437,1.492,0.301,-0.117,1.479,0.157
13897433,1.376,0.329,-0.13,1.352,0.218
13908759,1.192,0.314,-0.127,1.15,0.287
13917473,1.117,0.271,-0.105,1.073,0.293
13927433,1.017,0.216,-0.043,0.963,0.325
13937433,0.939,0.152,-0.005,0.881,0.324
13947433,0.908,0.089,0.022,0.849,0.323
13957539,0.836,0.027,-0.007,0.787,0.283
13967469,0.834,-0.029,-0.011,0.789,0.27
13977433,0.853,-0.07,-0.003,0.813,0.258
13987433,0.972,-0.087,0.005,0.937,0.259
13997433,1.063,-0.075,-0.013,1.029,0.267
14008306,1.085,-0.053,-0.018,1.052,0.264
14017465,1.103,-0.03,-0.068,1.065,0.279
14027433,1.127,-0.008,-0.098,1.079,0.311
14037761,1.142,0.014,-0.112,1.099,0.29
14047433,1.148,0.033,-0.078,1.114,0.266
14057582,1.14,0.047,-0.055,1.112,0.248
14067623,1.124,0.055,-0.045,1.094,0.256
14077437,1.094,0.056,-0.031,1.06,0.27
14087433,1.082,0.051,-0.034,1.049,0.266
14097433,1.082,0.046,-0.039,1.037,0.306
14107520,1.061,0.039,-0.05,1.015,0.303
14117708,1.049,0.029,-0.043,0.99,0.346
14127457,1.028,0.018,-0.057,0.97,0.336
14137433,1.0,0.004,-0.071,0.94,0.331
14147441,0.965,-0.014,-0.096,0.911,0.305
14157433,0.958,-0.033,-0.115,0.905,0.29
14167561,0.926,-0.052,-0.154,0.874,0.266
14177460,0.919,-0.07,-0.166,0.865,0.263
14187437,0.936,-0.083,-0.188,0.878,0.262
14197433,0.953,-0.088,-0.191,0.89,0.283
14208656,0.967,-0.088,-0.194,0.904,0.283
14217723,0.967,-0.086,-0.197,0.905,0.278
14227457,0.979,-0.082,-0.187,0.918,0.285
14237433,1.0,-0.074,-0.169,0.945,0.281
14247433,1.003,-0.065,-0.162,0.944,0.299
14257433,1.031,-0.055,-0.151,0.981,0.279
14269002,1.064,-0.039,-0.145,1.014,0.289
14277465,1.06,-0.023,-0.133,1.014,0.279
14287433,1.059,-0.011,-0.153,1.008,0.284
14297433,1.061,-0.002,-0.146,1.015,0.273
14307433,1.064,0.006,-0.149,1.018,0.273
14318676,1.087,0.015,-0.123,1.046,0.266
14327465,1.11,0.027,-0.137,1.07,0.26
14337433,1.122,0.04,-0.153,1.08,0.264
14347433,1.124,0.051,-0.126,1.085,0.264
14357433,1.111,0.059,-0.152,1.073,0.245
14367433,1.106,0.062,-0.158,1.066,0.246
14377567,1.12,0.064,-0.199,1.081,0.215
14387445,1.209,0.078,-0.24,1.17,0.182
14397433,1.293,0.107,-0.268,1.25,0.189
14407433,1.506,0.162,-0.297,1.461,0.21
14419475,1.689,0.248,-0.265,1.647,0.261
14427582,1.723,0.337,-0.228,1.69,0.249
14437433,1.617,0.395,-0.172,1.586,0.262
14447433,1.397,0.4,-0.122,1.367,0.261
14457433,1.296,0.366,-0.116,1.266,0.252
14467433,1.171,0.31,-0.153,1.141,0.213
14477524,1.094,0.242,-0.168,1.067,0.173
14487481,1.073,0.176,-0.19,1.046,0.139
14497433,1.029,0.117,-0.185,1.005,0.114
14507433,0.996,0.061,-0.17,0.974,0.115
14517472,1.009,0.015,-0.152,0.99,0.12
14527632,1.017,-0.019,-0.156,0.994,0.148
14537441,1.003,-0.045,-0.154,0.978,0.157
14547680,0.989,-0.069,-0.139,0.96,0.188
14557457,0.996,-0.087,-0.117,0.97,0.197
14567556,1.039,-0.095,-0.104,1.015,0.198
14577433,1.058,-0.093,-0.104,1.037,0.182
14587433,1.063,-0.088,-0.087,1.045,0.177
14597555,1.048,-0.085,-0.095,1.031,0.166
14607484,0.998,-0.089,-0.082,0.982,0.154
14618974,1.006,-0.096,-0.07,0.994,0.14
14628053,1.005,-0.101,-0.084,0.992,0.137
14637461,1.006,-0.103,-0.085,0.993,0.135
14647433,1.012,-0.103,-0.098,0.998,0.135
14657433,1.011,-0.102,-0.104,0.996,0.142
14667433,1.003,-0.101,-0.129,0.979,0.174
14677877,1.011,-0.1,-0.113,0.985,0.196
14687461,1.006,-0.098,-0.102,0.98,0.201
14697433,0.993,-0.097,-0.108,0.968,0.194
14707433,0.965,-0.101,-0.099,0.938,0.206
14717473,0.953,-0.107,-0.105,0.925,0.204
14727683,0.928,-0.115,-0.1,0.904,0.182
14737461,0.888,-0.128,-0.106,0.867,0.163
14747433,0.897,-0.14,-0.104,0.875,0.169
14757433,0.878,-0.15,-0.123,0.854,0.161
14767433,0.875,-0.159,-0.106,0.853,0.164
14777568,0.879,-0.164,-0.096,0.855,0.18
14787480,0.901,-0.164,-0.104,0.877,0.178
14797437,0.93,-0.157,-0.11,0.906,0.182
14807433,0.932,-0.147,-0.114,0.905,0.19
14817687,0.938,-0.137,-0.124,0.909,0.196
14828551,0.921,-0.129,-0.121,0.895,0.184
14837587,0.929,-0.123,-0.117,0.903,0.186
14847453,0.929,-0.117,-0.121,0.901,0.188
14857433,0.93,-0.111,-0.088,0.906,0.19
14867433,0.926,-0.106,-0.104,0.897,0.204
14877433,0.946,-0.099,-0.103,0.917,0.208
14887544,0.984,-0.087,-0.107,0.955,0.212
14897472,1.005,-0.07,-0.112,0.977,0.207
14907437,1.017,-0.052,-0.121,0.988,0.208
14917433,1.005,-0.038,-0.099,0.982,0.189
14927521,0.988,-0.031,-0.084,0.963,0.202
14937712,0.978,-0.027,-0.076,0.953,0.207
14947433,1.009,-0.022,-0.081,0.989,0.183
14957433,1.07,-0.008,-0.106,1.051,0.17
14967433,1.248,0.031,-0.145,1.231,0.141
14977433,1.43,0.1,-0.179,1.413,0.127
14987504,1.496,0.181,-0.188,1.48,0.11
14997504,1.477,0.248,-0.153,1.465,0.111
15007445,1.325,0.279,-0.106,1.307,0.188
15017433,1.283,0.278,-0.091,1.264,0.202
15028533,1.223,0.265,-0.037,1.183,0.307
15038047,1.199,0.242,-0.008,1.155,0.321
15047457,1.16,0.216,-0.009,1.128,0.27
15057433,1.019,0.174,0.002,0.995,0.221
15067575,0.878,0.108,0.001,0.863,0.161
15077469,0.815,0.034,-0.014,0.799,0.161
15087573,0.764,-0.037,-0.052,0.747,0.153
15097480,0.812,-0.093,-0.112,0.784,0.177
15107437,0.846,-0.126,-0.133,0.816,0.179
15117433,0.894,-0.141,-0.158,0.863,0.171
15127433,0.975,-0.137,-0.18,0.94,0.182
15137880,0.987,-0.123,-0.192,0.95,0.186
15147457,1.034,-0.104,-0.21,0.988,0.22
15157433,1.066,-0.08,-0.187,1.025,0.224
15167433,1.097,-0.053,-0.147,1.063,0.226
15177433,1.092,-0.029,-0.063,1.073,0.191
15188336,1.06,-0.015,-0.014,1.044,0.181
15197457,1.05,-0.008,-0.007,1.032,0.196
15207433,1.026,-0.007,-0.006,1.009,0.188
15217433,1.022,-0.008,-0.034,1.005,0.181
15227433,1.002,-0.013,-0.053,0.985,0.177
15237624,0.99,-0.019,-0.074,0.97,0.182
15247453,0.965,-0.029,-0.086,0.939,0.201
15257433,0.97,-0.038,-0.089,0.944,0.201
15267433,0.941,-0.047,-0.138,0.905,0.215
15277433,0.937,-0.058,-0.145,0.895,0.237
15287566,0.93,-0.067,-0.156,0.883,0.248
15297453,0.939,-0.073,-0.145,0.896,0.237
15307433,0.929,-0.078,-0.132,0.89,0.231
15317668,0.925,-0.082,-0.143,0.883,0.236
15327433,0.904,-0.088,-0.165,0.857,0.233
15339094,0.918,-0.092,-0.175,0.87,0.236
15347613,0.913,-0.093,-0.179,0.858,0.255
15357433,0.946,-0.091,-0.164,0.897,0.252
15367433,0.994,-0.079,-0.173,0.939,0.275
15377433,1.017,-0.061,-0.17,0.962,0.28
15387437,1.06,-0.04,-0.192,1.007,0.27
15397433,1.098,-0.013,-0.179,1.044,0.289
15407433,1.103,0.012,-0.186,1.048,0.287
15417432,1.117,0.033,-0.162,1.064,0.298
15427433,1.128,0.053,-0.146,1.08,0.294
15438226,1.146,0.071,-0.143,1.099,0.293
15447703,1.114,0.082,-0.153,1.067,0.28
15457457,1.077,0.083,-0.146,1.025,0.296
15467433,1.072,0.078,-0.161,1.02,0.289
15477433,1.06,0.072,-0.167,0.998,0.317
15487433,1.076,0.067,-0.179,1.019,0.294
15497556,1.103,0.067,-0.166,1.046,0.308
15507472,1.112,0.071,-0.137,1.061,0.302
15517433,1.106,0.074,-0.118,1.058,0.298
15527433,1.093,0.073,-0.101,1.057,0.259
15537433,1.157,0.078,-0.15,1.123,0.236
15547700,1.359,0.111,-0.235,1.32,0.222
15557574,1.509,0.175,-0.262,1.467,0.232
15567583,1.73,0.265,-0.277,1.69,0.24
15577433,1.808,0.366,-0.267,1.77,0.259
15587433,1.775,0.447,-0.21,1.737,0.297
15597433,1.559,0.478,-0.108,1.522,0.319
15608273,1.284,0.443,-0.089,1.242,0.313
15617457,1.176,0.37,-0.111,1.134,0.292
15627433,1.039,0.282,-0.145,0.992,0.272
15637433,0.996,0.192,-0.136,0.956,0.244
15647643,1.005,0.117,-0.151,0.965,0.235
15657636,1.017,0.06,-0.119,0.984,0.229
15667457,1.031,0.018,-0.1,1.0,0.228
15677433,1.065,-0.009,-0.076,1.034,0.244
15687433,1.077,-0.025,-0.099,1.045,0.24
15697433,1.083,-0.035,-0.113,1.049,0.245
15708499,1.092,-0.041,-0.157,1.056,0.233
15717468,1.118,-0.041,-0.182,1.082,0.212
15727433,1.111,-0.039,-0.199,1.072,0.213
15737433,1.099,-0.039,-0.213,1.053,0.229
15749842,1.1,-0.04,-0.234,1.046,0.244
15757583,1.094,-0.041,-0.235,1.039,0.25
15767457,1.085,-0.043,-0.192,1.04,0.244
15777433,1.104,-0.043,-0.132,1.071,0.231
15787433,1.104,-0.041,-0.102,1.078,0.217
15797433,1.114,-0.038,-0.089,1.09,0.21
15807552,1.116,-0.033,-0.063,1.095,0.207
15817736,1.104,-0.031,-0.063,1.083,0.205
15827433,1.086,-0.032,-0.064,1.062,0.222
15837433,1.067,-0.037,-0.065,1.043,0.215
15847778,1.062,-0.043,-0.085,1.037,0.214
15857715,1.021,-0.053,-0.109,0.992,0.215
15867453,0.985,-0.069,-0.163,0.94,0.245
15877433,0.979,-0.085,-0.19,0.933,0.231
15887433,0.956,-0.1,-0.202,0.903,0.239
15897433,0.926,-0.117,-0.225,0.867,0.236
15907556,0.914,-0.134,-0.219,0.858,0.227
15917452,0.893,-0.15,-0.219,0.834,0.234
15927433,0.855,-0.168,-0.218,0.796,0.223
15937433,0.843,-0.186,-0.204,0.78,0.245
15947433,0.797,-0.205,-0.185,0.74,0.23
15957687,0.798,-0.223,-0.154,0.742,0.25
15967453,0.777,-0.237,-0.149,0.713,0.27
15977433,0.765,-0.251,-0.131,0.701,0.277
15987433,0.781,-0.258,-0.157,0.706,0.293
15997433,0.805,-0.258,-0.161,0.724,0.312
16008020,0.816,-0.251,-0.165,0.74,0.302
16017437,0.796,-0.246,-0.163,0.725,0.285
16027433,0.805,-0.24,-0.146,0.74,0.281
16037761,0.831,-0.23,-0.175,0.745,0.326
16047433,0.873,-0.213,-0.228,0.778,0.322
16058928,0.899,-0.19,-0.238,0.796,0.343
16067619,0.909,-0.167,-0.247,0.805,0.341
16077433,0.931,-0.145,-0.24,0.832,0.343
16087433,0.945,-0.122,-0.22,0.849,0.353
16097433,0.942,-0.102,-0.193,0.849,0.358
16107433,0.928,-0.087,-0.192,0.835,0.355
16117564,0.93,-0.077,-0.189,0.837,0.358
16127445,0.924,-0.068,-0.188,0.825,0.371
16137433,0.927,-0.062,-0.161,0.816,0.409
16147433,0.935,-0.055,-0.16,0.826,0.408
16160264,0.953,-0.046,-0.15,0.847,0.41
16167578,0.964,-0.036,-0.153,0.868,0.391
16177433,0.982,-0.024,-0.168,0.898,0.36
16187433,1.119,0.002,-0.193,1.045,0.351
16197433,1.262,0.054,-0.206,1.189,0.371
16207433,1.317,0.116,-0.219,1.244,0.373
16217531,1.323,0.17,-0.208,1.249,0.383
16227484,1.24,0.202,-0.189,1.169,0.367
16237433,1.201,0.212,-0.174,1.128,0.371
16247432,1.229,0.216,-0.157,1.152,0.399
16257513,1.291,0.228,-0.126,1.214,0.42
16267715,1.28,0.241,-0.111,1.203,0.423
16277453,1.191,0.238,-0.127,1.117,0.394
16287433,1.079,0.212,-0.095,1.011,0.364
16297433,1.001,0.168,-0.076,0.938,0.34
16307433,0.963,0.12,-0.064,0.897,0.344
16317809,0.983,0.079,-0.116,0.911,0.35
16327469,1.001,0.051,-0.157,0.916,0.372
16337433,1.077,0.04,-0.239,0.987,0.359
16347433,1.143,0.047,-0.275,1.055,0.344
16357433,1.159,0.061,-0.278,1.073,0.337
16367770,1.213,0.079,-0.278,1.137,0.318
16377453,1.249,0.103,-0.24,1.187,0.308
16387433,1.26,0.126,-0.222,1.203,0.303
16397433,1.264,0.144,-0.165,1.213,0.314
16407433,1.254,0.157,-0.132,1.206,0.316
16417556,1.194,0.157,-0.072,1.146,0.328
16427453,1.14,0.144,-0.014,1.092,0.325
16437433,1.109,0.122,-0.003,1.06,0.329
16447433,1.087,0.099,0.009,1.048,0.289
16457433,1.049,0.073,-0.023,1.019,0.249
16467687,1.034,0.047,-0.059,1.0,0.254
16477453,1.013,0.022,-0.068,0.98,0.249
16487433,1.003,-0.001,-0.123,0.965,0.242
16497433,1.009,-0.019,-0.147,0.974,0.222
16508361,0.988,-0.035,-0.202,0.943,0.212
16517548,0.971,-0.051,-0.242,0.913,0.226
16527433,0.97,-0.065,-0.275,0.901,0.232
16537433,0.954,-0.077,-0.296,0.882,0.211
16547433,0.972,-0.086,-0.3,0.896,0.228
16557560,0.961,-0.092,-0.274,0.891,0.234
16568430,0.968,-0.095,-0.274,0.895,0.246
16577433,0.964,-0.097,-0.25,0.9,0.236
16587433,0.944,-0.101,-0.244,0.884,0.224
16597433,0.964,-0.102,-0.219,0.908,0.241
16607585,0.964,-0.101,-0.197,0.907,0.263
16617453,0.981,-0.097,-0.186,0.924,0.271
16627433,0.972,-0.092,-0.172,0.922,0.253
16637433,0.976,-0.088,-0.154,0.924,0.274
16648741,0.953,-0.087,-0.138,0.907,0.26
16657464,0.956,-0.087,-0.12,0.913,0.257
16667484,0.952,-0.087,-0.078,0.915,0.252
16677607,0.949,-0.087,-0.062,0.917,0.236
16687489,0.94,-0.087,-0.059,0.912,0.219
16697433,0.945,-0.087,-0.027,0.922,0.208
16707619,0.952,-0.085,-0.021,0.928,0.209
16717437,0.961,-0.082,-0.022,0.938,0.208
16727433,0.988,-0.074,-0.044,0.964,0.214
16737433,0.978,-0.065,-0.066,0.952,0.215
16747433,1.025,-0.054,-0.104,0.998,0.212
16757433,1.077,-0.034,-0.13,1.051,0.199
16768696,1.094,-0.01,-0.135,1.067,0.198
16777719,1.166,0.018,-0.145,1.142,0.183
16787457,1.217,0.054,-0.156,1.198,0.152
16797433,1.237,0.089,-0.169,1.216,0.152
16807433,1.28,0.123,-0.182,1.255,0.172
16817664,1.264,0.151,-0.143,1.244,0.174
16827708,1.239,0.167,-0.127,1.22,0.172
16837480,1.159,0.167,-0.1,1.137,0.203
16847433,1.067,0.146,-0.065,1.041,0.229
16857433,1.031,0.114,-0.056,1.005,0.221
16867433,0.945,0.074,-0.059,0.921,0.202
16878215,0.91,0.03,-0.041,0.89,0.186
16887457,0.87,-0.014,-0.044,0.85,0.182
16897433,0.843,-0.055,-0.049,0.828,0.151
16907433,0.839,-0.089,-0.074,0.823,0.146
16917433,0.849,-0.115,-0.088,0.831,0.153
16927734,0.885,-0.129,-0.114,0.861,0.167
16937453,0.925,-0.13,-0.119,0.905,0.15
16947433,0.948,-0.123,-0.131,0.925,0.16
16957433,0.986,-0.109,-0.144,0.962,0.159
16967433,1.024,-0.09,-0.149,1.0,0.16
16978748,1.05,-0.067,-0.147,1.029,0.143
16987548,1.083,-0.041,-0.136,1.061,0.168
16997433,1.109,-0.015,-0.138,1.086,0.177
17007433,1.127,0.011,-0.137,1.103,0.188
17017433,1.134,0.033,-0.142,1.106,0.205
17027433,1.167,0.055,-0.192,1.123,0.253
17037790,1.168,0.075,-0.237,1.111,0.271
17047433,1.156,0.089,-0.29,1.088,0.26
17057433,1.122,0.094,-0.274,1.053,0.271
17067579,1.095,0.09,-0.269,1.03,0.258
17077529,1.065,0.08,-0.242,1.007,0.25
17087433,1.04,0.066,-0.235,0.98,0.257
17097433,1.02,0.049,-0.231,0.968,0.223
17107433,1.0,0.031,-0.229,0.945,0.231
17117433,0.988,0.013,-0.21,0.936,0.237
17127441,0.974,-0.004,-0.215,0.917,0.248
17137433,0.979,-0.018,-0.201,0.92,0.267
17147433,0.962,-0.03,-0.186,0.902,0.276
17157433,0.969,-0.04,-0.184,0.908,0.284
17167433,0.956,-0.049,-0.171,0.903,0.263
17177846,0.945,-0.057,-0.162,0.888,0.279
17187728,0.95,-0.064,-0.167,0.895,0.271
17197461,0.942,-0.07,-0.161,0.883,0.285
17207433,0.923,-0.076,-0.163,0.861,0.29
17217433,0.922,-0.083,-0.176,0.864,0.27
17227433,0.934,-0.086,-0.187,0.867,0.292
17238158,0.946,-0.085,-0.217,0.88,0.268
17247566,0.957,-0.082,-0.217,0.896,0.26
17257433,0.965,-0.076,-0.228,0.905,0.247
17267433,0.967,-0.069,-0.224,0.903,0.264
17277433,0.96,-0.065,-0.205,0.906,0.242
17287723,0.967,-0.06,-0.227,0.908,0.242
17297476,0.957,-0.057,-0.241,0.897,0.231
17307433,0.973,-0.053,-0.238,0.913,0.238
17317672,1.018,-0.043,-0.24,0.964,0.224
17327433,1.041,-0.027,-0.232,0.99,0.223
17337433,1.062,-0.01,-0.215,1.02,0.204
17347567,1.082,0.008,-0.208,1.044,0.191
17357452,1.104,0.027,-0.195,1.068,0.2
17367433,1.098,0.043,-0.194,1.062,0.202
17377433,1.103,0.055,-0.185,1.069,0.201
17387643,1.112,0.066,-0.194,1.075,0.208
17397579,1.11,0.074,-0.202,1.069,0.219
17407574,1.094,0.078,-0.179,1.057,0.218
17417433,1.087,0.078,-0.175,1.05,0.218
17427433,1.06,0.074,-0.161,1.023,0.225
17437432,1.043,0.065,-0.155,1.007,0.225
17447432,1.02,0.053,-0.169,0.982,0.216
17457432,1.017,0.04,-0.17,0.98,0.208
17467432,1.032,0.031,-0.174,0.995,0.212
17477432,1.036,0.026,-0.164,0.998,0.224
17487524,1.042,0.023,-0.175,1.003,0.224
17497707,1.085,0.026,-0.186,1.046,0.218
17507449,1.132,0.039,-0.176,1.101,0.199
17517441,1.159,0.056,-0.188,1.128,0.188
17527468,1.206,0.078,-0.2,1.172,0.2
17537433,1.216,0.1,-0.19,1.187,0.186
17547544,1.198,0.116,-0.174,1.17,0.192
17557507,1.124,0.117,-0.162,1.09,0.224
17567575,1.07,0.102,-0.146,1.037,0.218
17577433,0.999,0.076,-0.144,0.959,0.237
17588584,0.955,0.042,-0.136,0.914,0.24
17597711,0.928,0.008,-0.139,0.884,0.248
17607457,0.962,-0.018,-0.153,0.924,0.218
17617433,1.007,-0.03,-0.171,0.971,0.205
17627433,1.016,-0.032,-0.182,0.98,0.194
17637433,1.06,-0.028,-0.177,1.029,0.186
17647555,1.091,-0.016,-0.172,1.06,0.194
17657468,1.096,-0.002,-0.167,1.067,0.187
17667433,1.107,0.01,-0.172,1.076,0.195
17677433,1.101,0.02,-0.16,1.074,0.185
17687433,1.104,0.027,-0.167,1.077,0.178
17697683,1.08,0.03,-0.133,1.058,0.17
17707496,1.041,0.025,-0.095,1.021,0.176
17717591,1.028,0.016,-0.08,1.008,0.187
17727445,1.015,0.005,-0.056,0.997,0.181
17737433,0.992,-0.008,-0.045,0.975,0.177
17747433,0.989,-0.02,-0.038,0.974,0.169
17757433,0.971,-0.032,-0.035,0.957,0.158
17767576,0.977,-0.042,-0.066,0.962,0.152
17777433,0.977,-0.049,-0.066,0.963,0.147
17787433,0.978,-0.054,-0.095,0.961,0.154
17797796,0.982,-0.057,-0.108,0.962,0.165
17807596,0.974,-0.059,-0.138,0.951,0.16
17817689,0.971,-0.061,-0.127,0.952,0.145
17827433,0.975,-0.063,-0.162,0.946,0.171
17837433,0.951,-0.065,-0.142,0.927,0.162
17847433,0.946,-0.07,-0.155,0.923,0.139
17857556,0.94,-0.075,-0.155,0.917,0.142
17867464,0.933,-0.079,-0.157,0.909,0.141
17877432,0.951,-0.081,-0.157,0.931,0.117
17887433,0.957,-0.078,-0.155,0.938,0.116
17899394,0.956,-0.076,-0.15,0.937,0.121
17907688,0.958,-0.073,-0.151,0.938,0.123
17917433,0.954,-0.07,-0.153,0.932,0.133
17927433,0.952,-0.068,-0.148,0.931,0.135
17937433,0.958,-0.066,-0.143,0.937,0.14
17947433,0.945,-0.064,-0.141,0.926,0.124
17957492,0.929,-0.065,-0.131,0.911,0.125
17967509,0.915,-0.069,-0.125,0.899,0.116
17977433,0.901,-0.075,-0.105,0.89,0.097
17987433,0.898,-0.081,-0.14,0.881,0.104
17997480,0.914,-0.083,-0.139,0.898,0.095
18007668,0.942,-0.079,-0.145,0.925,0.097
18017480,0.948,-0.072,-0.15,0.932,0.085
18027433,0.983,-0.061,-0.157,0.968,0.075
18037789,1.019,-0.044,-0.167,1.001,0.086
18047433,1.045,-0.024,-0.159,1.029,0.089
18057433,1.049,-0.004,-0.162,1.033,0.078
18067575,1.047,0.011,-0.15,1.032,0.093
18077433,1.044,0.022,-0.185,1.025,0.074
18087433,1.052,0.031,-0.186,1.033,0.065
18097433,1.078,0.042,-0.195,1.057,0.078
18107675,1.081,0.053,-0.185,1.064,0.053
18117857,1.095,0.063,-0.167,1.081,0.045
18127540,1.109,0.074,-0.162,1.097,0.026
18137461,1.119,0.084,-0.173,1.105,0.042
18147433,1.135,0.094,-0.189,1.117,0.059
18157433,1.159,0.106,-0.195,1.141,0.055
18167433,1.179,0.119,-0.181,1.164,0.057
18177861,1.19,0.132,-0.182,1.175,0.06
18187444,1.172,0.14,-0.162,1.158,0.07
18197433,1.137,0.139,-0.141,1.126,0.062
18208960,1.076,0.126,-0.145,1.064,0.069
18217556,1.023,0.103,-0.156,1.009,0.07
18227433,1.001,0.075,-0.147,0.987,0.085
18237433,0.993,0.05,-0.152,0.978,0.075
18247433,0.988,0.029,-0.131,0.976,0.082
18258233,0.993,0.012,-0.127,0.98,0.095
18267548,0.972,-0.003,-0.149,0.954,0.117
18277433,0.975,-0.017,-0.157,0.958,0.097
18287433,0.978,-0.026,-0.155,0.958,0.115
18297433,0.953,-0.036,-0.17,0.93,0.119
18309970,0.941,-0.048,-0.162,0.918,0.128
18317776,0.895,-0.063,-0.16,0.872,0.125
18327437,0.906,-0.078,-0.175,0.881,0.119
18337433,0.942,-0.084,-0.171,0.919,0.113
18347433,1.024,-0.074,-0.164,1.003,0.119
18357433,1.105,-0.048,-0.167,1.086,0.114
18367512,1.14,-0.015,-0.163,1.12,0.137
18377532,1.163,0.018,-0.153,1.146,0.126
18387433,1.143,0.044,-0.127,1.125,0.154
18397433,1.135,0.06,-0.138,1.116,0.153
18407784,1.118,0.07,-0.108,1.102,0.158
18417715,1.069,0.069,-0.122,1.052,0.14
18427457,1.05,0.06,-0.122,1.032,0.15
18437433,1.006,0.046,-0.128,0.985,0.155
18447433,0.958,0.024,-0.121,0.939,0.149
18457433,0.939,-0.0,-0.126,0.916,0.165
18467560,0.92,-0.024,-0.118,0.896,0.17
18477453,0.911,-0.045,-0.102,0.892,0.154
18487433,0.902,-0.063,-0.131,0.878,0.162
18497433,0.895,-0.078,-0.126,0.872,0.158
18507433,0.92,-0.087,-0.139,0.889,0.193
18517647,0.935,-0.089,-0.132,0.908,0.178
18527574,0.957,-0.086,-0.097,0.934,0.186
18537453,1.007,-0.074,-0.061,0.988,0.186
18547433,1.017,-0.058,-0.046,0.999,0.188
18557433,1.031,-0.042,-0.02,1.011,0.202
18567568,1.028,-0.029,0.001,1.011,0.183
18577632,1.032,-0.018,-0.002,1.015,0.188
18587504,1.075,-0.004,-0.027,1.057,0.196
18597437,1.119,0.017,-0.019,1.105,0.178
18607433,1.157,0.042,-0.032,1.14,0.196
18618645,1.168,0.066,-0.015,1.147,0.222
18627520,1.159,0.085,-0.032,1.128,0.265
18637433,1.146,0.097,-0.016,1.112,0.276
18647433,1.103,0.098,-0.012,1.062,0.296
18657484,1.053,0.089,-0.002,1.014,0.287
18667433,1.031,0.072,0.007,0.99,0.287
18677572,1.003,0.053,-0.006,0.965,0.275
18687453,0.97,0.031,-0.011,0.936,0.253
18697433,0.956,0.009,-0.04,0.919,0.26
18707433,0.95,-0.011,-0.052,0.917,0.243
18720252,0.976,-0.024,-0.077,0.943,0.241
18727587,0.991,-0.029,-0.086,0.952,0.263
18737433,1.001,-0.03,-0.116,0.957,0.271
18747433,1.013,-0.029,-0.118,0.958,0.307
18757433,0.998,-0.027,-0.106,0.945,0.303
18767433,0.997,-0.028,-0.099,0.942,0.311
18777520,0.98,-0.03,-0.093,0.933,0.288
18787481,0.966,-0.035,-0.084,0.921,0.28
18797433,0.972,-0.039,-0.087,0.926,0.282
18807433,0.97,-0.042,-0.079,0.924,0.284
18817797,0.983,-0.043,-0.069,0.939,0.281
18827625,0.989,-0.041,-0.071,0.945,0.283
18837441,0.984,-0.039,-0.074,0.939,0.283
18847433,0.977,-0.038,-0.08,0.931,0.284
18857437,0.961,-0.04,-0.118,0.909,0.291
18867564,0.967,-0.042,-0.155,0.905,0.304
18877461,0.974,-0.042,-0.17,0.906,0.313
18887437,0.98,-0.04,-0.182,0.906,0.326
18897433,1.022,-0.033,-0.189,0.934,0.371
18907433,1.038,-0.021,-0.189,0.944,0.387
18917548,1.081,-0.005,-0.21,0.982,0.4
18927659,1.123,0.018,-0.244,1.019,0.403
18937472,1.18,0.046,-0.281,1.069,0.413
18947433,1.265,0.083,-0.391,1.129,0.414
18957544,1.346,0.13,-0.497,1.169,0.445
18967472,1.375,0.178,-0.51,1.193,0.457
18977433,1.349,0.214,-0.457,1.187,0.451
18987433,1.29,0.231,-0.392,1.153,0.426
18997433,1.279,0.234,-0.372,1.152,0.412
19007536,1.273,0.233,-0.375,1.145,0.412
19017473,1.301,0.232,-0.455,1.144,0.42
19027632,1.308,0.234,-0.482,1.134,0.438
19037794,1.317,0.236,-0.522,1.115,0.467
19047762,1.34,0.238,-0.521,1.148,0.455
19057587,1.365,0.244,-0.521,1.18,0.445
19067575,1.415,0.255,-0.517,1.249,0.419
19077433,1.497,0.276,-0.547,1.311,0.473
19087433,1.499,0.3,-0.538,1.335,0.42
19097437,1.49,0.315,-0.55,1.336,0.362
19107563,1.453,0.319,-0.527,1.306,0.357
19117444,1.424,0.312,-0.54,1.273,0.342
19129016,1.396,0.298,-0.569,1.218,0.377
19137586,1.46,0.289,-0.618,1.242,0.457
19147472,1.481,0.289,-0.644,1.256,0.448
19157433,1.45,0.286,-0.632,1.24,0.406
19167433,1.372,0.269,-0.531,1.215,0.353
19177433,1.311,0.238,-0.456,1.189,0.31
19187433,1.2,0.193,-0.381,1.108,0.261
19197560,1.081,0.13,-0.343,0.998,0.235
19207441,1.02,0.061,-0.33,0.938,0.225
19217433,0.915,-0.013,-0.32,0.823,0.238
19227524,0.855,-0.088,-0.311,0.763,0.229
19237707,0.757,-0.163,-0.299,0.655,0.233
19247461,0.71,-0.236,-0.28,0.601,0.254
19257433,0.723,-0.295,-0.326,0.569,0.304
19267433,0.785,-0.33,-0.435,0.565,0.328
19277433,0.835,-0.342,-0.493,0.576,0.35
19287552,0.844,-0.342,-0.504,0.583,0.342
19297457,0.766,-0.347,-0.394,0.585,0.297
19307433,0.685,-0.366,-0.3,0.558,0.263
19317671,0.631,-0.393,-0.25,0.522,0.252
19327756,0.579,-0.422,-0.223,0.473,0.249
19337675,0.55,-0.451,-0.218,0.438,0.252
19347524,0.553,-0.473,-0.222,0.427,0.273
19357433,0.57,-0.483,-0.234,0.429,0.293
19367433,0.58,-0.485,-0.225,0.435,0.311
19377433,0.58,-0.481,-0.215,0.43,0.324
19387433,0.581,-0.474,-0.184,0.426,0.35
19397433,0.58,-0.465,-0.154,0.443,0.341
19407433,0.577,-0.455,-0.17,0.42,0.357
19417433,0.598,-0.441,-0.131,0.46,0.359
19427433,0.595,-0.425,-0.109,0.473,0.344
19437893,0.602,-0.409,-0.101,0.479,0.351
19447477,0.622,-0.39,-0.048,0.506,0.359
19457433,0.66,-0.366,-0.048,0.546,0.367
19467433,0.677,-0.338,-0.044,0.566,0.368
19477433,0.702,-0.309,-0.044,0.606,0.352
19487556,0.771,-0.274,-0.057,0.699,0.321
19497453,0.809,-0.232,-0.063,0.75,0.297
19507433,0.954,-0.177,-0.085,0.903,0.295
19517433,1.148,-0.095,-0.122,1.099,0.311
19527433,1.231,0.0,-0.109,1.192,0.286
19538001,1.383,0.1,-0.066,1.339,0.337
19547453,1.49,0.206,-0.016,1.449,0.346
19557433,1.546,0.305,0.016,1.506,0.35
19567566,1.581,0.39,0.048,1.535,0.375
19578612,1.549,0.453,0.052,1.494,0.405
19587540,1.509,0.49,0.064,1.452,0.407
19597437,1.471,0.506,0.041,1.413,0.408
19607433,1.433,0.506,0.023,1.379,0.389
19617433,1.446,0.499,0.002,1.395,0.383
19627556,1.45,0.492,-0.006,1.406,0.355
19637504,1.52,0.49,-0.014,1.488,0.307
19647616,1.541,0.495,-0.052,1.516,0.269
19657433,1.613,0.506,-0.129,1.59,0.234
19667433,1.642,0.522,-0.102,1.627,0.201
19677582,1.675,0.537,-0.119,1.661,0.176
19687476,1.702,0.551,-0.181,1.683,0.177
19697433,1.701,0.56,-0.252,1.673,0.18
19707433,1.668,0.559,-0.267,1.636,0.186
19717433,1.517,0.533,-0.28,1.472,0.241
19727433,1.37,0.476,-0.242,1.323,0.26
19738901,1.23,0.395,-0.223,1.176,0.284
19747893,1.159,0.306,-0.201,1.104,0.29
19757457,1.08,0.217,-0.214,1.018,0.292
19767449,1.05,0.135,-0.203,0.985,0.302
19777433,1.004,0.061,-0.19,0.937,0.309
19787433,0.993,-0.003,-0.208,0.92,0.311
19798541,0.988,-0.055,-0.189,0.916,0.318
19807473,0.975,-0.096,-0.192,0.91,0.295
19817672,1.0,-0.126,-0.226,0.934,0.277
19827433,0.996,-0.146,-0.242,0.928,0.271
19837433,0.973,-0.164,-0.254,0.903,0.26
19847828,0.955,-0.18,-0.278,0.882,0.239
19857465,0.955,-0.194,-0.298,0.875,0.243
19867433,0.943,-0.204,-0.299,0.859,0.249
19877433,0.934,-0.213,-0.3,0.852,0.241
19887433,0.924,-0.22,-0.299,0.839,0.246
19897794,0.912,-0.227,-0.275,0.832,0.254
19907578,0.942,-0.228,-0.286,0.851,0.284
19917433,0.963,-0.221,-0.292,0.869,0.294
19927433,1.005,-0.207,-0.281,0.925,0.276
19937433,1.035,-0.187,-0.293,0.952,0.284
19948695,1.028,-0.167,-0.299,0.938,0.293
19957497,1.035,-0.15,-0.312,0.949,0.27
19967433,1.049,-0.133,-0.31,0.972,0.244
19977433,1.072,-0.115,-0.329,0.988,0.256
19987433,1.092,-0.095,-0.323,1.015,0.241
19997433,1.141,-0.072,-0.327,1.065,0.246
20007559,1.161,-0.045,-0.317,1.088,0.253
20017456,1.177,-0.02,-0.281,1.115,0.249
20027433,1.186,0.003,-0.279,1.12,0.273
20037762,1.172,0.02,-0.268,1.111,0.261
20047525,1.152,0.029,-0.251,1.094,0.258
20057708,1.216,0.041,-0.276,1.157,0.253
20067579,1.288,0.065,-0.31,1.229,0.229
20077433,1.534,0.119,-0.369,1.477,0.189
20087433,1.801,0.217,-0.396,1.749,0.17
20097433,1.904,0.333,-0.37,1.859,0.172
20107508,1.994,0.442,-0.282,1.968,0.155
20117496,1.859,0.518,-0.172,1.844,0.157
20127433,1.709,0.541,-0.156,1.695,0.16
20137433,1.478,0.512,-0.194,1.456,0.169
20147919,1.381,0.448,-0.246,1.354,0.122
20157616,1.382,0.385,-0.246,1.356,0.091
20167445,1.412,0.336,-0.225,1.393,0.052
20177433,1.42,0.299,-0.211,1.404,0.03
20187437,1.407,0.268,-0.148,1.399,0.019
20197745,1.394,0.239,-0.131,1.388,0.02
20207461,1.413,0.215,-0.127,1.407,0.026
20217433,1.491,0.206,-0.155,1.482,0.038
20227433,1.543,0.211,-0.163,1.535,0.021
20237433,1.56,0.222,-0.136,1.554,0.009
20248422,1.515,0.225,-0.122,1.51,0.021
20257667,1.404,0.208,-0.11,1.399,0.025
20267433,1.347,0.175,-0.104,1.342,0.036
20277433,1.23,0.128,-0.1,1.225,0.042
20287433,1.125,0.066,-0.106,1.119,0.06
20297433,1.091,0.001,-0.087,1.085,0.073
20307433,1.026,-0.06,-0.076,1.02,0.078
20317712,0.963,-0.121,-0.066,0.957,0.084
20327433,0.943,-0.177,-0.051,0.936,0.104
20337433,0.893,-0.227,-0.065,0.884,0.102
20347433,0.826,-0.277,-0.053,0.816,0.111
20358157,0.735,-0.331,-0.043,0.726,0.109
20367587,0.71,-0.384,-0.048,0.7,0.108
20377453,0.646,-0.431,-0.042,0.632,0.124
20387433,0.639,-0.473,-0.076,0.621,0.13
20397433,0.62,-0.504,-0.137,0.578,0.176
20407433,0.629,-0.526,-0.188,0.563,0.205
20417676,0.648,-0.535,-0.228,0.565,0.218
20427492,0.648,-0.536,-0.238,0.562,0.22
20437433,0.617,-0.536,-0.21,0.544,0.203
20447433,0.604,-0.536,-0.197,0.538,0.192
20460428,0.577,-0.537,-0.185,0.511,0.194
20467672,0.562,-0.538,-0.185,0.496,0.19
20477508,0.55,-0.537,-0.18,0.488,0.18
20487497,0.574,-0.531,-0.18,0.5,0.219
20497441,0.587,-0.518,-0.168,0.515,0.228
20507433,0.603,-0.501,-0.163,0.53,0.238
20517433,0.639,-0.478,-0.164,0.551,0.277
20527504,0.675,-0.448,-0.141,0.581,0.313
20537531,0.693,-0.415,-0.138,0.6,0.317
20547433,0.743,-0.379,-0.149,0.654,0.318
20558173,0.801,-0.335,-0.146,0.718,0.323
20567854,0.832,-0.289,-0.15,0.75,0.327
20577453,0.866,-0.244,-0.13,0.796,0.316
20587433,0.917,-0.197,-0.116,0.852,0.319
20597433,0.936,-0.151,-0.075,0.873,0.328
20607433,1.019,-0.103,-0.019,0.957,0.351
20617552,1.123,-0.044,0.049,1.073,0.33
20627472,1.152,0.017,0.058,1.109,0.306
20637433,1.252,0.079,0.087,1.221,0.263
20647433,1.379,0.152,0.097,1.362,0.197
20657433,1.45,0.229,0.08,1.437,0.181
20667691,1.606,0.313,-0.0,1.6,0.143
20677492,1.718,0.405,-0.041,1.708,0.185
20687587,1.753,0.49,-0.049,1.74,0.203
20697445,1.73,0.554,-0.046,1.707,0.278
20707433,1.59,0.58,-0.022,1.549,0.357
20717433,1.52,0.572,-0.003,1.47,0.386
20727433,1.425,0.543,-0.027,1.376,0.369
20737576,1.356,0.498,-0.047,1.312,0.337
20747488,1.336,0.449,-0.075,1.301,0.295
20757433,1.315,0.403,-0.131,1.283,0.256
20769063,1.321,0.363,-0.159,1.295,0.204
20777477,1.322,0.329,-0.169,1.3,0.173
20787433,1.371,0.306,-0.141,1.352,0.183
20797433,1.414,0.296,-0.189,1.391,0.169
20807433,1.432,0.293,-0.212,1.406,0.173
20817673,1.387,0.285,-0.233,1.354,0.193
20827560,1.34,0.266,-0.255,1.298,0.215
20837449,1.296,0.239,-0.23,1.256,0.224
20847433,1.203,0.201,-0.188,1.164,0.24
20857484,1.138,0.153,-0.116,1.101,0.266
20869524,1.1,0.102,-0.102,1.062,0.27
20877587,1.036,0.05,-0.089,0.996,0.271
20887457,0.988,-0.003,-0.111,0.943,0.272
20897433,0.963,-0.052,-0.122,0.91,0.29
20907433,0.92,-0.097,-0.14,0.873,0.257
20917433,0.915,-0.137,-0.158,0.859,0.271
20927560,0.909,-0.168,-0.17,0.852,0.268
20937457,0.923,-0.19,-0.208,0.866,0.24
20947433,0.961,-0.2,-0.254,0.895,0.24
20957433,0.966,-0.201,-0.272,0.896,0.237
20968379,0.978,-0.198,-0.336,0.886,0.239
20977664,0.96,-0.195,-0.355,0.853,0.262
20987433,0.955,-0.194,-0.37,0.846,0.243
20997433,0.957,-0.192,-0.387,0.84,0.249
21007433,0.973,-0.186,-0.398,0.853,0.246
21017433,0.962,-0.18,-0.393,0.846,0.236
21027587,0.973,-0.174,-0.391,0.858,0.237
21037781,0.999,-0.164,-0.369,0.891,0.26
21047433,1.019,-0.149,-0.345,0.92,0.269
21057432,1.072,-0.129,-0.319,0.984,0.282
21067575,1.094,-0.103,-0.254,1.022,0.298
21077719,1.111,-0.078,-0.232,1.041,0.31
21087453,1.126,-0.055,-0.166,1.065,0.324
21097433,1.121,-0.035,-0.137,1.06,0.337
21107433,1.099,-0.023,-0.13,1.037,0.341
21117433,1.098,-0.015,-0.148,1.037,0.332
21127552,1.101,-0.009,-0.17,1.037,0.33
21137453,1.096,-0.004,-0.176,1.033,0.321
21147433,1.124,0.002,-0.187,1.066,0.302
21157433,1.135,0.011,-0.193,1.075,0.306
21167433,1.14,0.02,-0.188,1.085,0.295
21177687,1.141,0.027,-0.177,1.089,0.293
21187440,1.172,0.036,-0.192,1.116,0.303
21197433,1.341,0.065,-0.22,1.289,0.297
21207432,1.677,0.144,-0.261,1.632,0.282
21217433,1.862,0.262,-0.238,1.83,0.25
21227433,2.214,0.412,-0.186,2.196,0.214
21237433,2.266,0.571,-0.044,2.255,0.218
21247433,2.144,0.681,0.022,2.134,0.208
21257433,1.752,0.704,0.056,1.734,0.245
21267432,1.564,0.651,-0.037,1.546,0.23
21279625,1.628,0.591,-0.089,1.612,0.214
21287589,1.706,0.555,-0.1,1.691,0.202
21297473,1.795,0.542,-0.11,1.784,0.164
21307433,1.77,0.535,-0.112,1.757,0.176
21317688,1.681,0.512,-0.098,1.672,0.142
21327433,1.605,0.472,-0.085,1.597,0.132
21337433,1.596,0.427,-0.061,1.591,0.12
21347574,1.584,0.387,-0.028,1.58,0.111
21357441,1.502,0.342,-0.013,1.497,0.127
21367433,1.46,0.291,0.006,1.454,0.127
21377513,1.375,0.234,-0.037,1.359,0.202
21387711,1.306,0.171,-0.102,1.281,0.233
21397453,1.276,0.11,-0.127,1.246,0.248
21407433,1.213,0.052,-0.114,1.19,0.208
21417433,1.108,-0.013,-0.027,1.088,0.204
21427433,1.075,-0.079,0.012,1.057,0.194
21437677,0.927,-0.15,0.092,0.904,0.184
21447476,0.805,-0.234,0.114,0.764,0.226
21457433,0.744,-0.317,0.078,0.692,0.261
21467433,0.636,-0.399,0.061,0.579,0.257
21477433,0.595,-0.475,0.015,0.514,0.299
21487723,0.576,-0.538,-0.001,0.484,0.313
21497453,0.522,-0.59,-0.004,0.426,0.302
21507433,0.457,-0.639,0.011,0.347,0.297
21517433,0.436,-0.682,0.025,0.326,0.289
21527433,0.393,-0.717,0.012,0.274,0.281
21537768,0.372,-0.746,-0.014,0.239,0.284
21547472,0.355,-0.767,-0.025,0.223,0.275
21557433,0.373,-0.776,-0.053,0.216,0.299
21567570,0.378,-0.775,-0.065,0.205,0.311
21577433,0.364,-0.769,-0.062,0.2,0.298
21587700,0.371,-0.759,-0.048,0.206,0.304
21597570,0.358,-0.746,-0.022,0.199,0.297
21607457,0.378,-0.729,-0.021,0.199,0.321
21617433,0.39,-0.707,-0.005,0.214,0.326
21627433,0.413,-0.68,-0.008,0.241,0.336
21637433,0.425,-0.649,-0.001,0.27,0.329
21647556,0.436,-0.618,0.011,0.304,0.312
21657532,0.496,-0.581,0.037,0.353,0.347
21667433,0.531,-0.537,0.021,0.397,0.352
21677433,0.659,-0.481,0.02,0.524,0.398
21690483,0.743,-0.409,0.005,0.643,0.373
21697524,0.783,-0.337,0.01,0.696,0.358
21707432,0.871,-0.263,0.036,0.806,0.327
21717433,0.952,-0.185,0.041,0.908,0.282
21727433,1.009,-0.108,0.047,0.969,0.276
21737433,1.162,-0.023,0.022,1.135,0.251
21747776,1.315,0.077,-0.039,1.305,0.164
21757488,1.383,0.179,-0.042,1.379,0.104
21767433,1.56,0.284,-0.068,1.559,0.028
21777433,1.813,0.411,-0.119,1.809,-0.057
21787509,1.943,0.55,-0.178,1.933,-0.085
21798417,2.2,0.696,-0.275,2.177,-0.152
21807484,2.373,0.852,-0.413,2.336,-0.082
21817672,2.441,0.994,-0.462,2.397,-0.035
21827433,2.358,1.094,-0.472,2.309,0.09
21837433,2.126,1.128,-0.471,2.065,0.174
21847433,2.037,1.109,-0.467,1.973,0.195
21857572,1.858,1.056,-0.444,1.794,0.188
21867489,1.642,0.962,-0.421,1.58,0.151
21877433,1.552,0.847,-0.403,1.494,0.12
21888732,1.416,0.725,-0.367,1.366,0.062
21898014,1.341,0.602,-0.336,1.298,-0.005
21907453,1.303,0.489,-0.333,1.26,-0.001
21917465,1.254,0.387,-0.292,1.219,-0.028
21927433,1.241,0.299,-0.322,1.198,0.008
21937433,1.217,0.223,-0.331,1.17,0.028
21947433,1.179,0.156,-0.336,1.128,0.065
21957621,1.12,0.092,-0.31,1.072,0.097
21967433,1.071,0.029,-0.292,1.023,0.122
21977433,0.991,-0.034,-0.226,0.953,0.15
21987433,0.954,-0.096,-0.207,0.912,0.186
21997648,0.907,-0.153,-0.167,0.87,0.194
22007590,0.916,-0.2,-0.18,0.875,0.201
22017445,0.941,-0.231,-0.215,0.892,0.206
22027433,0.965,-0.248,-0.25,0.907,0.214
22037790,0.979,-0.254,-0.287,0.906,0.238
22047433,0.966,-0.258,-0.286,0.891,0.24
22057433,0.975,-0.258,-0.299,0.887,0.273
22067575,0.976,-0.256,-0.31,0.883,0.276
22077433,0.963,-0.253,-0.309,0.874,0.263
22087433,0.961,-0.251,-0.314,0.862,0.288
22098958,0.947,-0.249,-0.312,0.838,0.31
22107613,0.928,-0.249,-0.315,0.826,0.283
22117433,0.915,-0.251,-0.304,0.807,0.306
22127433,0.957,-0.247,-0.304,0.845,0.33
22137433,0.972,-0.235,-0.294,0.864,0.334
22147433,0.99,-0.221,-0.281,0.896,0.316
22157536,1.012,-0.204,-0.257,0.929,0.307
22167484,0.999,-0.188,-0.247,0.919,0.303
22177433,1.038,-0.171,-0.244,0.965,0.295
22187433,1.084,-0.147,-0.257,0.999,0.332
22197508,1.111,-0.119,-0.249,1.038,0.311
22207711,1.122,-0.092,-0.207,1.056,0.318
22217453,1.12,-0.069,-0.172,1.055,0.334
22227433,1.112,-0.052,-0.142,1.048,0.342
22237433,1.09,-0.042,-0.109,1.024,0.357
22247433,1.092,-0.036,-0.121,1.023,0.361
22257822,1.105,-0.029,-0.125,1.04,0.352
22267468,1.117,-0.021,-0.142,1.05,0.355
22277433,1.136,-0.011,-0.138,1.063,0.374
22287433,1.158,0.001,-0.142,1.092,0.359
22298917,1.189,0.017,-0.14,1.123,0.367
22307707,1.223,0.036,-0.148,1.163,0.346
22317696,1.22,0.054,-0.172,1.157,0.346
22327433,1.258,0.072,-0.204,1.198,0.325
22337433,1.424,0.108,-0.263,1.366,0.306
22347433,1.537,0.166,-0.299,1.479,0.293
22357560,1.823,0.255,-0.283,1.784,0.246
22367457,2.097,0.384,-0.186,2.082,0.179
22377433,2.179,0.522,-0.129,2.167,0.187
22387433,2.196,0.635,-0.081,2.183,0.221
22397433,1.915,0.689,-0.119,1.895,0.254
22407671,1.731,0.672,-0.133,1.702,0.284
22417476,1.458,0.603,-0.119,1.426,0.283
22427433,1.325,0.499,-0.135,1.293,0.254
22437433,1.335,0.401,-0.147,1.304,0.246
22447433,1.335,0.323,-0.177,1.311,0.183
22457433,1.344,0.26,-0.217,1.319,0.143
22467433,1.359,0.213,-0.26,1.329,0.124
22477433,1.377,0.178,-0.272,1.345,0.112
22487433,1.39,0.153,-0.269,1.358,0.122
22497433,1.405,0.135,-0.275,1.37,0.143
22509949,1.394,0.121,-0.3,1.349,0.183
22517500,1.299,0.097,-0.29,1.25,0.202
22527433,1.218,0.058,-0.251,1.173,0.209
22537433,1.063,0.001,-0.211,1.022,0.2
22547433,0.908,-0.079,-0.148,0.875,0.189
22557433,0.852,-0.163,-0.155,0.811,0.21
22567754,0.748,-0.245,-0.131,0.713,0.185
22577448,0.688,-0.325,-0.086,0.651,0.206
22587433,0.665,-0.394,-0.094,0.611,0.245
22597433,0.655,-0.448,-0.075,0.604,0.242
22607513,0.604,-0.493,-0.015,0.563,0.219
22617707,0.565,-0.535,0.029,0.522,0.212
22627449,0.526,-0.571,0.091,0.476,0.204
22637441,0.474,-0.605,0.092,0.406,0.227
22647433,0.437,-0.637,0.089,0.372,0.212
22657433,0.401,-0.664,0.016,0.315,0.247
22667524,0.464,-0.677,-0.059,0.322,0.329
22677477,0.491,-0.672,-0.113,0.343,0.332
22687441,0.579,-0.65,-0.204,0.378,0.388
22697433,0.614,-0.614,-0.187,0.426,0.401
22707612,0.605,-0.578,-0.186,0.412,0.403
22717644,0.561,-0.551,-0.137,0.382,0.387
22727509,0.555,-0.532,-0.133,0.359,0.401
22737433,0.56,-0.513,-0.126,0.366,0.404
22747433,0.583,-0.491,-0.141,0.383,0.417
22757433,0.633,-0.462,-0.143,0.416,0.455
22767433,0.661,-0.427,-0.143,0.441,0.472
22777568,0.703,-0.388,-0.141,0.487,0.487
22787457,0.698,-0.351,-0.077,0.531,0.446
22797433,0.692,-0.321,-0.061,0.543,0.425
22807433,0.667,-0.299,0.005,0.543,0.387
22820549,0.698,-0.278,0.009,0.601,0.355
22827461,0.71,-0.255,0.001,0.622,0.344
22837433,0.784,-0.226,-0.031,0.712,0.326
22847433,0.876,-0.182,-0.12,0.812,0.306
22857433,0.93,-0.131,-0.195,0.861,0.293
22867433,1.033,-0.073,-0.317,0.947,0.262
22877568,1.147,-0.002,-0.393,1.042,0.275
22887441,1.191,0.07,-0.391,1.096,0.257
22897433,1.269,0.139,-0.343,1.206,0.196
22907433,1.322,0.207,-0.317,1.275,0.148
22918379,1.474,0.28,-0.256,1.45,0.073
22927445,1.652,0.372,-0.251,1.632,0.009
22937580,1.699,0.465,-0.271,1.677,0.024
22947461,1.79,0.55,-0.228,1.775,0.005
22957433,1.811,0.623,-0.283,1.789,0.029
22967433,1.784,0.675,-0.286,1.761,-0.017
22977433,1.752,0.703,-0.455,1.691,-0.051
22987583,1.652,0.704,-0.48,1.58,-0.04
22997472,1.621,0.685,-0.427,1.563,-0.025
23007433,1.633,0.662,-0.634,1.504,-0.07
23019350,1.489,0.625,-0.508,1.396,-0.089
23027757,1.428,0.568,-0.461,1.351,-0.042
23037818,1.448,0.514,-0.443,1.377,-0.043
23047441,1.497,0.477,-0.489,1.415,-0.03
23057433,1.51,0.451,-0.514,1.418,-0.062
23067587,1.501,0.427,-0.518,1.408,-0.019
23077433,1.422,0.396,-0.498,1.332,0.049
23087508,1.393,0.356,-0.482,1.304,0.076
23097505,1.27,0.306,-0.426,1.19,0.121
23107433,1.156,0.238,-0.352,1.091,0.15
23117464,1.103,0.164,-0.306,1.048,0.158
23128509,1.004,0.089,-0.233,0.966,0.144
23137548,0.945,0.012,-0.188,0.91,0.171
23147433,0.931,-0.056,-0.178,0.893,0.195
23157433,0.911,-0.112,-0.143,0.876,0.203
23167433,0.923,-0.156,-0.146,0.875,0.257
23177433,0.94,-0.185,-0.146,0.887,0.275
23187548,0.983,-0.199,-0.146,0.908,0.348
23197472,1.043,-0.197,-0.185,0.935,0.424
23207433,1.086,-0.183,-0.194,0.97,0.449
23217433,1.128,-0.161,-0.239,0.994,0.477
23228032,1.115,-0.139,-0.272,0.996,0.421
23237611,1.102,-0.124,-0.276,0.986,0.407
23247453,1.083,-0.115,-0.313,0.958,0.396
23257433,1.07,-0.11,-0.329,0.947,0.375
23267433,1.094,-0.105,-0.344,0.967,0.379
23277433,1.084,-0.098,-0.306,0.969,0.378
23287548,1.096,-0.092,-0.273,0.995,0.369
23297461,1.104,-0.084,-0.228,1.017,0.365
23307433,1.115,-0.075,-0.149,1.041,0.37
23317684,1.153,-0.062,-0.116,1.085,0.374
23327632,1.167,-0.046,-0.112,1.101,0.369
23337593,1.172,-0.031,-0.15,1.099,0.378
23347433,1.169,-0.019,-0.188,1.088,0.384
23357434,1.154,-0.011,-0.212,1.066,0.388
23367433,1.159,-0.006,-0.212,1.066,0.4
23377529,1.18,0.001,-0.199,1.094,0.394
23387497,1.198,0.01,-0.186,1.117,0.39
23397433,1.244,0.025,-0.181,1.173,0.372
23407433,1.27,0.044,-0.167,1.223,0.3
23417433,1.287,0.063,-0.156,1.25,0.266
23428793,1.308,0.082,-0.146,1.271,0.27
23437591,1.313,0.099,-0.104,1.285,0.249
23447468,1.311,0.111,-0.119,1.284,0.236
23457433,1.396,0.13,-0.149,1.371,0.213
23467437,1.592,0.174,-0.248,1.564,0.162
23477433,1.726,0.244,-0.292,1.695,0.136
23487433,2.016,0.345,-0.542,1.941,0.07
23497433,2.243,0.478,-0.873,2.066,-0.058
23507433,2.246,0.603,-0.917,2.048,-0.102
23517433,2.088,0.678,-0.78,1.934,-0.105
23527750,1.8,0.68,-0.542,1.71,-0.145
23537703,1.679,0.631,-0.428,1.617,-0.153
23547461,1.548,0.56,-0.299,1.511,-0.148
23557433,1.491,0.479,-0.215,1.467,-0.16
23567566,1.466,0.403,-0.203,1.445,-0.146
23577433,1.392,0.33,-0.13,1.384,-0.084
23587831,1.297,0.252,-0.16,1.286,0.038
23597472,1.246,0.173,-0.178,1.23,0.083
23607433,1.19,0.098,-0.202,1.162,0.16
23617433,1.118,0.025,-0.142,1.093,0.189
23627433,1.09,-0.043,-0.104,1.066,0.2
23637727,0.96,-0.113,-0.021,0.939,0.2
23647477,0.818,-0.197,0.001,0.797,0.183
23657433,0.76,-0.283,-0.003,0.741,0.169
23667433,0.649,-0.367,-0.046,0.628,0.155
23677433,0.633,-0.443,-0.129,0.597,0.167
23687556,0.646,-0.499,-0.193,0.584,0.197
23697453,0.679,-0.533,-0.258,0.605,0.165
23707433,0.64,-0.556,-0.232,0.581,0.134
23717433,0.617,-0.577,-0.209,0.565,0.132
23727433,0.523,-0.601,-0.165,0.482,0.117
23737683,0.475,-0.631,-0.13,0.434,0.143
23747457,0.465,-0.656,-0.147,0.411,0.159
23757433,0.482,-0.669,-0.164,0.407,0.2
23767433,0.499,-0.67,-0.179,0.402,0.234
23777433,0.519,-0.662,-0.178,0.413,0.26
23787570,0.576,-0.641,-0.244,0.416,0.314
23797476,0.6,-0.611,-0.228,0.439,0.34
23807433,0.581,-0.582,-0.2,0.429,0.336
23817672,0.565,-0.559,-0.15,0.434,0.33
23827433,0.543,-0.541,-0.149,0.408,0.326
23839793,0.533,-0.527,-0.132,0.404,0.323
23847601,0.55,-0.51,-0.144,0.403,0.346
23857473,0.551,-0.491,-0.142,0.417,0.332
23867433,0.598,-0.468,-0.148,0.454,0.36
23877433,0.652,-0.434,-0.159,0.505,0.381
23887433,0.669,-0.397,-0.155,0.528,0.381
23897433,0.685,-0.361,-0.113,0.561,0.376
23907555,0.682,-0.329,-0.077,0.571,0.365
23917441,0.67,-0.303,-0.057,0.557,0.369
23927433,0.688,-0.28,-0.043,0.596,0.342
23937517,0.764,-0.249,-0.038,0.684,0.339
23947715,0.798,-0.211,-0.044,0.725,0.331
23957457,0.919,-0.162,-0.032,0.851,0.346
23967433,1.029,-0.098,-0.048,0.969,0.342
23977433,1.087,-0.028,-0.042,1.032,0.34
23987433,1.209,0.047,-0.033,1.163,0.33
23997556,1.331,0.132,-0.019,1.297,0.297
24007468,1.365,0.214,-0.026,1.339,0.263
24017433,1.406,0.285,0.006,1.389,0.223
24027433,1.504,0.353,0.018,1.494,0.174
24039121,1.569,0.421,0.005,1.562,0.15
24048080,1.776,0.501,-0.027,1.771,0.133
24057520,2.001,0.608,-0.083,1.996,0.125
24067590,2.095,0.722,-0.106,2.087,0.152
24077433,2.177,0.824,-0.118,2.164,0.206
24087433,2.092,0.896,-0.129,2.067,0.293
24097433,1.99,0.924,-0.117,1.96,0.326
24107556,1.789,0.905,-0.126,1.753,0.33
24117468,1.635,0.843,-0.149,1.601,0.3
24127433,1.55,0.761,-0.187,1.517,0.259
24137433,1.464,0.673,-0.253,1.427,0.208
24148367,1.367,0.578,-0.317,1.316,0.186
24157481,1.347,0.487,-0.341,1.289,0.189
24167433,1.297,0.405,-0.368,1.228,0.202
24177433,1.289,0.331,-0.353,1.221,0.216
24187433,1.276,0.269,-0.333,1.211,0.227
24198151,1.273,0.217,-0.341,1.207,0.22
24207477,1.217,0.168,-0.34,1.147,0.22
24217433,1.193,0.12,-0.337,1.125,0.204
24227433,1.121,0.071,-0.337,1.05,0.198
24237433,1.064,0.018,-0.304,0.997,0.213
24248320,1.027,-0.034,-0.288,0.962,0.215
24257465,0.995,-0.082,-0.22,0.944,0.225
24267433,0.955,-0.126,-0.182,0.906,0.239
24277433,0.95,-0.164,-0.163,0.905,0.239
24287433,0.925,-0.196,-0.153,0.879,0.244
24297564,0.904,-0.225,-0.158,0.853,0.254
24307461,0.885,-0.249,-0.182,0.832,0.242
24317668,0.876,-0.27,-0.202,0.817,0.242
24327433,0.874,-0.285,-0.227,0.81,0.239
24337560,0.866,-0.295,-0.245,0.796,0.237
24347508,0.875,-0.301,-0.283,0.792,0.24
24357622,0.882,-0.301,-0.299,0.791,0.252
24367441,0.896,-0.296,-0.306,0.805,0.248
24377433,0.877,-0.291,-0.313,0.785,0.232
24387560,0.908,-0.283,-0.33,0.81,0.248
24397465,0.915,-0.27,-0.332,0.817,0.247
24407433,0.913,-0.258,-0.333,0.821,0.221
24417433,0.946,-0.243,-0.351,0.85,0.221
24427433,0.946,-0.225,-0.344,0.854,0.217
24437556,0.984,-0.206,-0.364,0.887,0.221
24448616,1.014,-0.182,-0.349,0.921,0.241
24457719,1.043,-0.155,-0.352,0.95,0.25
24467469,1.082,-0.125,-0.334,0.995,0.264
24477433,1.106,-0.094,-0.323,1.022,0.27
24487433,1.125,-0.064,-0.293,1.05,0.275
24497433,1.147,-0.036,-0.273,1.081,0.268
24507619,1.15,-0.011,-0.265,1.087,0.267
24517457,1.159,0.01,-0.241,1.104,0.257
24527433,1.139,0.025,-0.227,1.08,0.282
24537433,1.143,0.034,-0.215,1.089,0.272
24547433,1.148,0.042,-0.203,1.097,0.269
24557691,1.155,0.05,-0.188,1.109,0.264
24567589,1.205,0.061,-0.209,1.166,0.221
24577433,1.285,0.084,-0.235,1.246,0.207
24587433,1.496,0.134,-0.303,1.454,0.178
24597433,1.807,0.23,-0.355,1.763,0.177
24608174,1.936,0.353,-0.362,1.892,0.191
24617473,2.101,0.478,-0.369,2.062,0.168
24627433,2.035,0.582,-0.311,2.006,0.136
24637433,1.926,0.638,-0.288,1.9,0.117
24647433,1.718,0.642,-0.228,1.699,0.118
24659003,1.595,0.602,-0.22,1.577,0.098
24667688,1.563,0.549,-0.225,1.543,0.109
24677453,1.524,0.496,-0.258,1.498,0.104
24687433,1.526,0.446,-0.269,1.499,0.101
24697433,1.55,0.407,-0.236,1.528,0.1
24707433,1.596,0.382,-0.18,1.584,0.075
24717544,1.6,0.365,-0.107,1.596,0.062
24727484,1.583,0.347,-0.096,1.58,0.028
24737433,1.453,0.314,-0.067,1.451,0.059
24747433,1.398,0.265,-0.066,1.394,0.087
24757521,1.272,0.205,-0.092,1.263,0.123
24767676,1.191,0.133,-0.141,1.166,0.2
24777587,1.181,0.066,-0.188,1.14,0.242
24787465,1.146,0.009,-0.291,1.081,0.247
24797433,1.072,-0.048,-0.263,1.019,0.203
24807433,1.015,-0.106,-0.223,0.971,0.194
24817681,0.924,-0.167,-0.118,0.906,0.142
24827548,0.83,-0.234,-0.077,0.816,0.131
24837476,0.765,-0.302,-0.074,0.754,0.105
24847433,0.683,-0.369,-0.103,0.661,0.139
24858896,0.61,-0.435,-0.177,0.557,0.173
24867679,0.602,-0.492,-0.193,0.544,0.171
24877594,0.567,-0.537,-0.203,0.487,0.208
24887453,0.56,-0.572,-0.185,0.474,0.233
24897433,0.547,-0.598,-0.166,0.469,0.229
24907433,0.49,-0.62,-0.113,0.415,0.234
24917433,0.411,-0.648,-0.096,0.33,0.226
24927963,0.404,-0.674,-0.095,0.304,0.249
24937453,0.373,-0.694,-0.139,0.241,0.249
24947433,0.362,-0.708,-0.144,0.208,0.259
24957433,0.366,-0.714,-0.153,0.19,0.272
24967647,0.398,-0.709,-0.159,0.213,0.295
24977433,0.433,-0.692,-0.185,0.241,0.308
24987595,0.455,-0.667,-0.176,0.267,0.324
24997433,0.47,-0.638,-0.189,0.282,0.325
25007433,0.49,-0.607,-0.188,0.304,0.336
25017481,0.514,-0.573,-0.204,0.319,0.349
25027433,0.538,-0.536,-0.22,0.359,0.335
25037789,0.54,-0.501,-0.182,0.378,0.34
25047433,0.526,-0.471,-0.158,0.381,0.325
25057433,0.539,-0.444,-0.099,0.414,0.331
25068474,0.556,-0.416,-0.067,0.448,0.322
25077583,0.589,-0.386,-0.053,0.488,0.327
25087433,0.689,-0.344,-0.089,0.577,0.367
25097433,0.837,-0.281,-0.175,0.703,0.42
25107433,0.918,-0.205,-0.199,0.788,0.427
25117433,1.044,-0.12,-0.245,0.927,0.414
25127548,1.107,-0.033,-0.187,1.03,0.362
25137472,1.149,0.047,-0.171,1.083,0.344
25147433,1.188,0.118,-0.096,1.157,0.254
25157433,1.275,0.186,-0.069,1.258,0.191
25167517,1.39,0.26,-0.068,1.378,0.169
25177711,1.649,0.357,-0.137,1.639,0.119
25187445,2.001,0.498,-0.198,1.987,0.138
25197441,2.167,0.662,-0.215,2.152,0.137
25207433,2.335,0.821,-0.203,2.317,0.208
25217433,2.242,0.946,-0.174,2.214,0.304
25227536,2.095,1.009,-0.151,2.059,0.36
25237465,1.797,1.0,-0.09,1.744,0.422
25247441,1.557,0.925,-0.087,1.509,0.376
25257433,1.47,0.822,-0.09,1.419,0.373
25267616,1.326,0.71,-0.157,1.276,0.322
25277672,1.223,0.59,-0.223,1.177,0.25
25287464,1.22,0.48,-0.251,1.172,0.23
25297433,1.273,0.397,-0.257,1.234,0.176
25307433,1.355,0.344,-0.248,1.323,0.156
25317700,1.386,0.313,-0.24,1.357,0.149
25327433,1.392,0.291,-0.225,1.366,0.146
25337433,1.288,0.261,-0.204,1.264,0.144
25347433,1.222,0.216,-0.193,1.199,0.131
25357433,1.081,0.156,-0.082,1.076,0.06
25367433,1.015,0.085,0.015,1.013,0.058
25377699,0.994,0.02,0.056,0.99,0.078
25387594,1.031,-0.029,0.033,1.018,0.157
25397457,1.046,-0.061,-0.047,1.021,0.222
25407433,1.039,-0.085,-0.075,1.006,0.249
25417433,0.975,-0.11,-0.127,0.927,0.272
25427433,0.919,-0.143,-0.16,0.857,0.29
25438054,0.905,-0.174,-0.174,0.837,0.296
25447485,0.882,-0.202,-0.218,0.81,0.271
25457433,0.852,-0.227,-0.234,0.797,0.186
25467433,0.842,-0.25,-0.217,0.799,0.15
25477656,0.844,-0.266,-0.245,0.794,0.151
25488073,0.917,-0.269,-0.325,0.841,0.166
25497480,0.959,-0.255,-0.357,0.872,0.178
25507433,0.992,-0.234,-0.397,0.887,0.199
25517433,0.987,-0.213,-0.418,0.867,0.218
25527433,0.966,-0.198,-0.423,0.834,0.24
25537433,0.924,-0.192,-0.409,0.795,0.233
25547560,0.939,-0.189,-0.399,0.821,0.219
25557472,0.967,-0.18,-0.397,0.852,0.229
25567575,0.951,-0.17,-0.334,0.874,0.172
25579316,0.94,-0.164,-0.248,0.892,0.167
25587966,0.919,-0.162,-0.16,0.891,0.161
25597481,0.961,-0.156,-0.098,0.937,0.189
25607441,1.05,-0.136,-0.091,1.019,0.235
25617433,1.075,-0.107,-0.089,1.041,0.253
25627433,1.089,-0.079,-0.092,1.046,0.288
25637830,1.02,-0.063,-0.073,0.972,0.3
25647548,0.994,-0.06,-0.069,0.946,0.299
25657453,0.96,-0.065,-0.081,0.909,0.298
25667433,0.96,-0.071,-0.094,0.915,0.275
25677473,1.037,-0.067,-0.17,0.989,0.264
25687672,1.113,-0.046,-0.207,1.064,0.254
25697540,1.144,-0.018,-0.219,1.097,0.238
25707437,1.225,0.017,-0.185,1.184,0.254
25717433,1.312,0.063,-0.106,1.284,0.248
25727433,1.349,0.111,-0.039,1.324,0.254
25737433,1.4,0.158,0.034,1.381,0.225
25747556,1.461,0.206,0.01,1.449,0.188
25757464,1.509,0.254,-0.049,1.498,0.181
25767433,1.705,0.316,-0.231,1.684,0.129
25777433,2.003,0.417,-0.332,1.972,0.114
25787945,2.184,0.546,-0.318,2.158,0.105
25797453,2.174,0.661,-0.274,2.155,0.1
25807441,1.936,0.717,-0.093,1.931,0.104
25817676,1.767,0.709,-0.038,1.762,0.119
25827433,1.471,0.645,-0.012,1.466,0.119
25838080,1.293,0.537,-0.065,1.288,0.098
25847556,1.222,0.422,-0.107,1.217,0.044
25857433,1.169,0.315,-0.178,1.156,0.007
25867433,1.157,0.222,-0.244,1.129,-0.074
25877433,1.224,0.154,-0.365,1.161,-0.126
25889309,1.441,0.132,-0.644,1.269,-0.229
25897469,1.356,0.129,-0.163,1.321,-0.26
25907433,1.33,0.113,0.105,1.282,-0.336
25917433,1.276,0.091,0.415,1.186,-0.225
25927433,1.099,0.047,0.298,1.042,-0.183
25937433,0.995,-0.019,0.182,0.963,-0.17
25947566,0.853,-0.097,-0.024,0.85,-0.071
25957445,0.854,-0.173,-0.065,0.851,0.036
25967433,0.879,-0.228,-0.058,0.875,0.068
25977433,0.949,-0.258,-0.043,0.941,0.11
25990931,0.948,-0.271,-0.077,0.94,0.095
25997552,0.926,-0.282,-0.106,0.917,0.075
26007433,0.85,-0.299,-0.186,0.83,0.015
26017433,0.801,-0.324,-0.231,0.765,-0.058
26027433,0.805,-0.346,-0.254,0.76,-0.079
26037761,0.787,-0.362,-0.274,0.728,-0.121
26047524,0.791,-0.373,-0.248,0.738,-0.14
26057481,0.81,-0.376,-0.217,0.772,-0.115
26067574,0.837,-0.37,-0.177,0.812,-0.094
26077485,0.854,-0.358,-0.137,0.841,-0.063
26087480,0.843,-0.345,-0.141,0.831,-0.028
26097676,0.822,-0.335,-0.156,0.806,0.024
26107461,0.801,-0.33,-0.151,0.782,0.086
26117433,0.788,-0.327,-0.143,0.77,0.088
26127433,0.833,-0.319,-0.162,0.8,0.164
26137433,0.902,-0.297,-0.17,0.85,0.249
26147801,0.933,-0.267,-0.172,0.877,0.268
26157468,0.954,-0.235,-0.171,0.887,0.305
26167433,0.947,-0.207,-0.21,0.868,0.315
26177433,0.943,-0.185,-0.239,0.855,0.318
26187433,0.933,-0.168,-0.269,0.815,0.366
26197736,0.912,-0.157,-0.283,0.789,0.359
26207453,0.895,-0.151,-0.271,0.775,0.355
26217433,0.944,-0.142,-0.307,0.808,0.38
26227433,1.015,-0.121,-0.362,0.856,0.407
26237433,1.08,-0.088,-0.403,0.922,0.392
26247846,1.183,-0.043,-0.444,1.042,0.343
26257476,1.313,0.019,-0.44,1.195,0.32
26267433,1.363,0.087,-0.427,1.254,0.322
26277433,1.437,0.153,-0.438,1.329,0.33
26287433,1.39,0.205,-0.417,1.273,0.373
26298182,1.345,0.235,-0.414,1.213,0.409
26307591,1.221,0.236,-0.405,1.063,0.442
26317688,1.129,0.211,-0.397,0.947,0.469
26327433,1.095,0.176,-0.39,0.92,0.446
26337433,1.059,0.14,-0.349,0.909,0.415
26347433,0.98,0.097,-0.283,0.877,0.333
26357544,0.944,0.051,-0.261,0.844,0.332
26367472,0.901,0.006,-0.211,0.827,0.291
26377433,0.865,-0.038,-0.199,0.795,0.276
26387433,0.862,-0.077,-0.203,0.79,0.278
26399480,0.855,-0.107,-0.241,0.771,0.28
26407731,0.877,-0.128,-0.301,0.769,0.293
26417473,0.907,-0.137,-0.325,0.788,0.31
26427433,0.937,-0.136,-0.342,0.815,0.31
26437433,0.971,-0.128,-0.354,0.845,0.322
26447433,0.974,-0.116,-0.34,0.854,0.324
26457433,0.976,-0.105,-0.333,0.857,0.326
26467583,0.981,-0.095,-0.324,0.86,0.341
26477453,0.985,-0.086,-0.341,0.864,0.328
26487433,0.994,-0.076,-0.309,0.891,0.315
26497472,0.992,-0.067,-0.28,0.909,0.283
26507644,1.008,-0.058,-0.28,0.931,0.266
26517433,1.046,-0.045,-0.254,0.982,0.256
26527566,1.076,-0.027,-0.251,1.017,0.249
26537453,1.09,-0.007,-0.256,1.032,0.242
26547433,1.092,0.01,-0.233,1.038,0.248
26557437,1.079,0.021,-0.229,1.025,0.245
26567880,1.07,0.028,-0.236,1.014,0.248
26577574,1.054,0.03,-0.244,0.988,0.272
26587437,1.054,0.029,-0.246,0.993,0.252
26597433,1.048,0.028,-0.264,0.979,0.266
26607648,1.055,0.027,-0.266,0.992,0.24
26617583,1.09,0.031,-0.264,1.037,0.208
26627453,1.108,0.039,-0.282,1.051,0.208
26637433,1.118,0.049,-0.271,1.064,0.211
26647433,1.129,0.058,-0.281,1.073,0.208
26657433,1.117,0.065,-0.277,1.064,0.199
26667582,1.097,0.066,-0.278,1.04,0.208
26677453,1.082,0.062,-0.281,1.023,0.215
26687433,1.077,0.057,-0.288,1.013,0.226
26697433,1.064,0.05,-0.282,0.996,0.247
26708722,1.068,0.043,-0.278,0.999,0.253
26717541,1.055,0.037,-0.287,0.985,0.248
26727434,1.049,0.029,-0.295,0.972,0.259
26737433,1.042,0.022,-0.276,0.977,0.236
26747433,1.03,0.014,-0.252,0.973,0.227
26758305,1.039,0.007,-0.24,0.987,0.215
26767517,1.05,0.004,-0.22,1.005,0.209
26777437,1.042,0.002,-0.223,0.995,0.214
26787433,1.026,-0.003,-0.222,0.976,0.225
26797433,1.025,-0.008,-0.224,0.978,0.207
26808323,1.017,-0.013,-0.22,0.965,0.232
26817875,1.004,-0.019,-0.206,0.958,0.218
26827433,1.004,-0.025,-0.214,0.956,0.22
26837433,1.021,-0.028,-0.217,0.973,0.222
26847433,1.04,-0.025,-0.204,1.0,0.2
26857433,1.03,-0.022,-0.211,0.989,0.196
26867433,1.033,-0.021,-0.204,0.994,0.194
26877433,1.035,-0.019,-0.206,0.995,0.197
26887433,1.022,-0.018,-0.186,0.985,0.198
26897433,1.025,-0.019,-0.208,0.981,0.214
26907521,1.022,-0.019,-0.215,0.978,0.205
26917711,1.018,-0.02,-0.214,0.973,0.213
26927457,1.027,-0.02,-0.205,0.984,0.209
26937433,1.02,-0.019,-0.202,0.979,0.202
26947433,1.024,-0.019,-0.194,0.984,0.204
26957433,1.017,-0.019,-0.192,0.98,0.188
26967556,1.008,-0.021,-0.184,0.973,0.191
26977472,1.015,-0.023,-0.172,0.983,0.184
26987433,1.005,-0.024,-0.176,0.968,0.204
26997433,0.998,-0.026,-0.181,0.961,0.199
27008715,0.999,-0.029,-0.187,0.96,0.2
27017727,0.999,-0.031,-0.2,0.959,0.193
27027453,0.999,-0.032,-0.195,0.962,0.186
27037758,0.999,-0.032,-0.206,0.958,0.196
27047433,1.014,-0.031,-0.205,0.973,0.198
27057434,1.004,-0.029,-0.193,0.965,0.195
27068022,1.013,-0.027,-0.208,0.973,0.195
27077457,1.02,-0.024,-0.198,0.979,0.204
27087433,1.025,-0.02,-0.202,0.982,0.213
27097433,1.03,-0.015,-0.197,0.992,0.196
27107433,1.028,-0.011,-0.197,0.988,0.208
27118004,1.033,-0.008,-0.183,0.996,0.206
27127453,1.051,-0.002,-0.201,1.011,0.205
27137433,1.047,0.003,-0.19,1.008,0.208
27147433,1.034,0.006,-0.179,0.994,0.22
27157433,1.042,0.007,-0.197,1.0,0.215
27168557,1.049,0.01,-0.188,1.01,0.211
27177465,1.059,0.014,-0.192,1.017,0.228
27187433,1.073,0.019,-0.189,1.033,0.217
27197433,1.067,0.024,-0.175,1.026,0.233
27207433,1.06,0.026,-0.176,1.018,0.237
27218611,1.047,0.026,-0.18,1.005,0.229
27227603,1.015,0.02,-0.164,0.976,0.223
27237457,0.997,0.01,-0.176,0.95,0.244
27247433,0.972,-0.003,-0.173,0.934,0.206
27257433,0.995,-0.013,-0.151,0.961,0.21
27267433,1.005,-0.017,-0.171,0.972,0.192
27277556,1.001,-0.019,-0.153,0.968,0.205
27287468,1.015,-0.02,-0.18,0.981,0.185
27297433,1.01,-0.019,-0.175,0.974,0.204
27307433,0.995,-0.021,-0.168,0.961,0.196
27317782,0.998,-0.023,-0.178,0.965,0.185
27327715,1.001,-0.024,-0.188,0.966,0.183
27337445,0.992,-0.025,-0.196,0.955,0.182
27347441,0.983,-0.028,-0.194,0.946,0.181
27357433,0.985,-0.031,-0.207,0.947,0.175
27367433,1.002,-0.03,-0.201,0.966,0.175
27377512,1.013,-0.027,-0.204,0.976,0.178
27387504,1.027,-0.021,-0.203,0.991,0.178
27397433,1.038,-0.014,-0.211,1.0,0.178
27407433,1.041,-0.006,-0.211,1.005,0.17
27418920,1.064,0.003,-0.21,1.027,0.185
27427711,1.062,0.012,-0.205,1.026,0.184
27437457,1.061,0.018,-0.211,1.023,0.182
27447433,1.052,0.022,-0.204,1.015,0.188
27457469,1.048,0.024,-0.208,1.01,0.188
27467433,1.016,0.021,-0.204,0.979,0.183
27477577,1.035,0.017,-0.214,0.996,0.185
27487457,1.023,0.014,-0.201,0.985,0.191
27497433,1.023,0.011,-0.202,0.989,0.169
27507433,1.021,0.008,-0.2,0.983,0.19
27518276,1.018,0.005,-0.199,0.978,0.202
27527668,1.02,0.002,-0.205,0.981,0.19
27537437,1.028,0.001,-0.208,0.986,0.203
27547433,1.033,0.002,-0.197,0.993,0.205
27557433,1.011,0.001,-0.198,0.973,0.192
27567601,1.015,-0.002,-0.201,0.973,0.209
27577594,0.991,-0.006,-0.179,0.953,0.207
27587437,0.992,-0.012,-0.17,0.955,0.211
27597433,1.007,-0.015,-0.168,0.969,0.216
27607433,1.026,-0.014,-0.172,0.986,0.222
27617433,1.025,-0.01,-0.181,0.99,0.196
27628172,1.014,-0.009,-0.2,0.969,0.22
27637587,1.013,-0.009,-0.195,0.972,0.207
27647473,1.014,-0.009,-0.186,0.975,0.205
27657433,1.009,-0.01,-0.206,0.968,0.194
27667433,1.014,-0.01,-0.212,0.969,0.209
27677433,1.014,-0.009,-0.208,0.971,0.208
27687433,1.02,-0.008,-0.199,0.978,0.208
27697611,1.023,-0.006,-0.201,0.978,0.223
27707453,1.028,-0.004,-0.2,0.986,0.208
27717433,1.022,-0.002,-0.208,0.979,0.205
27727472,1.017,-0.002,-0.199,0.979,0.19
27738176,1.039,0.0,-0.209,1.003,0.174
27747477,1.037,0.004,-0.211,1.0,0.176
27757441,1.047,0.008,-0.21,1.005,0.204
27767433,1.025,0.01,-0.218,0.984,0.189
27777433,1.011,0.007,-0.216,0.965,0.209
27787540,0.998,0.002,-0.209,0.957,0.192
27797465,1.0,-0.004,-0.207,0.962,0.181
27807441,1.007,-0.007,-0.201,0.973,0.163
27817680,1.002,-0.009,-0.203,0.966,0.168
